time,seconds_elapsed,z,y,x
1684115925028810200,0.037810302734375,-0.2769020476698875,-2.2793182666525245,-0.637017946729809
1684115925048939500,0.057939453125,-0.5425625703573227,-1.4860492893725632,0.08914689470082521
1684115925069068500,0.078068603515625,-0.606352613222599,-2.3438499216653406,1.227006869650632
1684115925089197300,0.098197265625,0.8710849151492118,-2.613522164212167,0.10862981300167739
1684115925109326300,0.118326416015625,1.4457219551593063,-3.3698037653565405,-1.4461618078812957
1684115925129454300,0.138454345703125,-0.42340252244770527,-3.571089138767123,-2.5352324713513252
1684115925149583400,0.158583251953125,-4.463617823961377,-4.094931811085343,-3.4895950969070193
1684115925169712400,0.17871240234375,-4.397153593450785,-2.8441555049210785,-2.588122934539616
1684115925189841200,0.198841064453125,-2.0240426521182058,-2.4058903443843125,-2.040098299384117
1684115925209970400,0.218970458984375,-0.17762918801307678,-2.187719302624464,-3.135374831756949
1684115925230099500,0.239099365234375,0.8271288690447807,-2.638310276249051,-2.710749197255075
1684115925250228500,0.259228515625,0.00895896700322628,-2.8162323097288606,-1.1484545803308486
1684115925270356500,0.2793564453125,-1.6501631622523067,-1.7905207503609357,-1.1039870775729417
1684115925290485500,0.299485595703125,-2.8502351170957088,-0.9961750106949359,-2.494659345683455
1684115925310614300,0.3196142578125,-2.55537538793087,-0.2896599320320412,-2.6933237229406832
1684115925330743300,0.339743408203125,-0.7359206578999757,-0.2915707706220448,-1.296611590144038
1684115925350872300,0.359872314453125,0.09768646724820136,0.5390146686173976,0.6033071080468595
1684115925371001600,0.380001708984375,-1.3754098170489073,1.3527857511781156,0.20126199253499508
1684115925391129300,0.40012939453125,-1.5510329259365796,1.2664013069279492,-1.638601611535251
1684115925411258400,0.42025830078125,-0.11375614303946495,0.6976616543933749,-1.7173668129533528
1684115925431387400,0.440387451171875,0.5420838469296694,1.1929650454476475,-0.2391831423893571
1684115925451516400,0.460516357421875,-0.23953882395923137,2.0282821893841025,-0.48829906525015826
1684115925471645400,0.4806455078125,-0.9617343233674764,1.938231623841822,-2.2023028315111994
1684115925491774200,0.500774169921875,-0.14149813644587994,1.3241672671981155,-3.0093796771302816
1684115925511903200,0.5209033203125,0.3284469414681196,1.8769702226713298,-1.1134221376553177
1684115925532031200,0.54103125,-0.676070292571187,3.0257512584775683,0.3329512671500444
1684115925552160300,0.56116015625,-1.4474445411682129,3.7133363400146364,-0.24113398419618606
1684115925572289500,0.58128955078125,-1.0223995122104883,3.012023469637334,-0.9518556111708283
1684115925592418600,0.60141845703125,1.6587018580168484,2.4255787951946255,-0.06049976914823055
1684115925612547300,0.62154736328125,2.792089217597246,2.335417462754249,0.5633762258052826
1684115925632676400,0.64167626953125,1.4126719184726475,2.0898302985414863,-0.49081601650714873
1684115925652805400,0.661805419921875,0.09114625182449818,2.091264422997832,-0.6812105780690908
1684115925672933400,0.681933349609375,0.21544366262257097,2.5035852871999142,-0.04276449823230505
1684115925693062400,0.7020625,1.0102864650905132,1.7451611210688946,-0.2974798485353589
1684115925713191200,0.722191162109375,0.8115794177353381,1.1670178265035152,-1.694005226588249
1684115925733320400,0.742320556640625,-0.3810112414419651,1.3493573841646314,-1.6922861477106808
1684115925753449500,0.762449462890625,-1.1671434987097977,1.6668182367160915,0.28893501529097554
1684115925773578500,0.78257861328125,-0.7670230676501989,1.4382617022812365,0.9227288854077458
1684115925793706500,0.80270654296875,-0.573541645988822,1.3609896620303392,0.08869681284576654
1684115925813835300,0.822835205078125,-0.7076005723446607,1.5253367591440676,-0.8913555497616529
1684115925833964300,0.84296435546875,-0.8795259957581758,1.5804636030822992,-0.23838059383481738
1684115925854093300,0.86309326171875,-0.31999709303081036,1.594624522642791,1.5671797586172818
1684115925874221600,0.8832216796875,0.4136836769878864,1.4525149763002991,2.1113123547703028
1684115925894350800,0.903350830078125,0.418249961990118,0.9598524551436305,0.41798897296637294
1684115925914478800,0.923478759765625,-0.03563771509230137,0.49863721165210007,-0.48735389335453505
1684115925934608000,0.94360791015625,-0.2683323722451925,0.37356501708924766,0.41826837442964315
1684115925954736600,0.963736572265625,-0.0036100071907043457,0.4812678514391184,2.196234909774363
1684115925974865700,0.98386572265625,1.2203285609304904,1.2969623032778501,3.299723097914457
1684115925994994700,1.00399462890625,-0.3661176236927509,1.4407687166661023,0.5236398432224989
1684115926015123700,1.024123779296875,-1.2397843720287083,1.0121510899186135,0.051447863164544104
1684115926035252500,1.04425244140625,-1.0313245769441126,0.8930380960211157,1.03785719358325
1684115926055380500,1.06438037109375,0.3632861996591091,1.4313900629460812,2.740156201264262
1684115926075509500,1.084509521484375,-0.04060089045763016,2.1449512972608207,2.0363784020781517
1684115926095638800,1.104638671875,-1.7041081029295921,1.6765420506119728,-1.6726760228335857
1684115926115767800,1.124767822265625,-0.14118775532245637,1.5123428375363348,0.9742091895371675
1684115926135896600,1.144896484375,-0.626768793785572,2.674073663547635,2.670212896466255
1684115926156025600,1.165025634765625,-0.8770604824274778,3.5888954290926454,1.333618840023875
1684115926176153600,1.185153564453125,0.9608078561723231,3.7281066236451266,-0.5800602341026068
1684115926196282600,1.20528271484375,3.1203724929362533,1.969694391337037,1.2944307389736174
1684115926216411600,1.22541162109375,2.778300930741429,2.157584276601672,1.6346487822562454
1684115926236540700,1.245540771484375,-1.0546090064197777,3.0363144458070397,0.6029895665302872
1684115926256669700,1.265669677734375,-4.428324392262101,5.15812159884572,-2.7884716116219757
1684115926276798700,1.285798828125,-5.24991783901155,5.46269549729526,-1.3525421516805887
1684115926296927700,1.305927734375,-3.065800944793224,4.05128819193095,0.9895531814023851
1684115926317055700,1.3260556640625,-3.1910183930456637,2.403526245601475,-0.8570300863116979
1684115926337184800,1.346184814453125,-5.5989820365726946,2.929776855844259,-4.757587034027278
1684115926357313500,1.3663134765625,-4.576167513820529,3.103666565068066,-6.0306070284426205
1684115926377442600,1.386442626953125,0.14791209514141082,2.2800416124910114,-3.147550130458176
1684115926397571600,1.406571533203125,2.3828397236645222,0.7304290747463703,-0.7587912458777427
1684115926417700900,1.426700927734375,-0.04338905987143516,0.7745312513232231,-2.465952306637168
1684115926437828900,1.446828857421875,-2.355783958956599,1.8197084125310181,-5.797042602717876
1684115926457957600,1.46695751953125,-0.8322416820138693,1.7846856144666672,-3.243784353071451
1684115926478086700,1.487086669921875,2.161288391816616,0.5870177981555461,0.6826460176996886
1684115926498215700,1.507215576171875,0.2197650329530239,-0.05297872599363327,-0.3718517834305763
1684115926518344700,1.5273447265625,-1.7815677747070788,0.70588616964221,-5.077093420931696
1684115926538473700,1.5474736328125,1.0408008458197116,1.889209818780422,-4.6389176922440525
1684115926558601700,1.567601806640625,3.739062609684467,0.8511714234113693,1.1595070124819875
1684115926578730500,1.58773046875,1.8308710270583628,-1.2006173137664795,0.7165326513409614
1684115926598859500,1.607859619140625,1.1658604731619358,-1.5936229443848131,-4.031387267413735
1684115926618988800,1.62798876953125,3.9991853719890114,-0.8239829722344875,-4.487750394698978
1684115926639117800,1.648117919921875,7.020194404375553,0.6976970179677009,2.12588273191452
1684115926659246600,1.66824658203125,2.1465128474891184,0.7423685188651085,7.624933152660727
1684115926679374600,1.68837451171875,-2.5517022523760793,-0.11978431728780269,0.7369700208224356
1684115926699503600,1.708503662109375,1.680524982768297,-0.594701922917366,-6.102806003212929
1684115926719632600,1.728632568359375,8.32364957680404,-1.138448150101304,-3.053651365055144
1684115926739761700,1.74876171875,6.722548259362578,0.5798474681347608,5.01537433912158
1684115926759890400,1.768890380859375,-1.8792869751811025,-0.5025006090819836,2.5520962201297284
1684115926780019700,1.789019775390625,-2.2644857314407822,-1.009718309813738,-2.6028742212086913
1684115926800147700,1.809147705078125,3.1356396201729773,-3.1900480867087837,-3.850623873028159
1684115926820276700,1.82927685546875,6.865097366166115,-2.291930203205347,0.2461766545385122
1684115926840405800,1.84940576171875,1.0834306117564438,0.08926672168821095,3.4800013391315936
1684115926860534800,1.86953466796875,-4.114230970317125,0.32722996689379213,2.8186870094045995
1684115926880664300,1.889664306640625,-2.837480264940858,-1.247802843311429,1.6269386462703346
1684115926900793300,1.90979345703125,0.3988262995958328,-3.7262668409973383,1.9943580002114176
1684115926920921300,1.92992138671875,-0.6384960564583539,-3.6442505288287994,4.21634869801104
1684115926941050400,1.95005029296875,-4.016016095280647,-3.373001100093126,2.6386054598033426
1684115926961179100,1.97017919921875,-2.9134482368558645,-4.532541138061881,-1.0396529909588397
1684115926981308400,1.990308349609375,3.059816609686613,-5.186962493404746,-0.5261081330321729
1684115927001437400,2.0104375,5.870141156676412,-3.8811025979220863,2.451125616644323
1684115927021566500,2.03056640625,2.0082582230091095,-2.5877736827105284,4.022610086718202
1684115927041694500,2.050694580078125,-1.9992419728606938,-2.3300997748628256,2.8231293757662175
1684115927061823500,2.070823486328125,-0.43155426472127434,-2.3852505841985345,1.6700680322922765
1684115927081952300,2.0909521484375,2.5930922473847864,-3.0819664821743964,2.086178351905197
1684115927102081300,2.111081298828125,2.5859990742534396,-2.6017458017006514,4.017647495874762
1684115927122210300,2.131210205078125,-0.16707739886045456,-2.74741479409039,3.300289791886508
1684115927142339600,2.151339599609375,-0.13286124100387095,-3.17798881560266,0.8462672847568988
1684115927162467600,2.171467529296875,2.670639597445726,-3.3260674994826314,-0.7696634991563857
1684115927182596400,2.191596435546875,4.319183049541712,-1.7508721921920776,2.0479438983179628
1684115927202725400,2.211725341796875,3.0009581780046224,-1.3723036677271128,4.083341326534748
1684115927222854400,2.2318544921875,-0.4553407985001802,-1.4215753558963535,2.1140508398234843
1684115927242983400,2.2519833984375,-0.7352876206934451,-0.7086521272242069,-0.6514508150994778
1684115927263112200,2.2721123046875,0.031852935856580736,0.43616380434334273,1.3694205135062336
1684115927283240200,2.292240234375,2.214346028265357,1.2779559895128012,4.200116817395389
1684115927303369200,2.312369140625,-0.20807810229063034,-0.5769827263534069,2.067624311952293
1684115927323498500,2.33249853515625,-1.9711480972766875,-0.5421592502534389,-0.06318908129744231
1684115927343627500,2.35262744140625,-0.0861953514188528,0.1590367157459259,-0.7630502184964716
1684115927363756500,2.372756591796875,3.633962651309371,0.5213906029909848,1.9660032817341386
1684115927383884500,2.392884521484375,2.6610230433166024,-0.9583628011077642,0.19837240857332944
1684115927404013300,2.413013427734375,-4.319873369893432,-1.8674679425716398,-2.112672537207603
1684115927424142300,2.433142333984375,-4.94015806235671,-0.80521631244421,-1.5345103918112815
1684115927444271400,2.453271240234375,-0.6637292819142341,0.17459610392749308,1.689223545269668
1684115927464400400,2.473400390625,3.331622795522213,0.84648881855309,2.410384148672223
1684115927484529200,2.493529052734375,-0.7385223648309707,-0.4903869774401188,-2.269022498087585
1684115927504657200,2.5136572265625,-3.7813399089217183,-0.45032033998966214,-3.5159289770811792
1684115927524786400,2.533786376953125,0.3005085487067699,-0.14460720837712288,-0.48324996516704555
1684115927544915500,2.55391552734375,3.130924866610765,0.6867915930718184,3.075986530981958
1684115927565044500,2.57404443359375,-0.04146422928869724,0.8321136717200279,-1.851572162042558
1684115927585173200,2.59417333984375,-5.124524449670314,-0.4499959303408861,-5.755013725283741
1684115927605302300,2.61430224609375,-2.5938655698448416,0.32478198921978474,-3.1289956521138547
1684115927625430300,2.63443017578125,1.1012520996510982,0.569397385790944,0.2655953484967351
1684115927645559300,2.654559326171875,2.2425065393447876,0.9717144501119851,0.7745701220288872
1684115927665688300,2.674688232421875,-1.4648697232216596,0.2487000355362892,-3.432840067245066
1684115927685817600,2.694817626953125,-3.883337809628248,0.5057680864453316,-4.345739632555842
1684115927705946400,2.7149462890625,-1.734782058134675,1.710766391775012,-1.9592010543733833
1684115927726075400,2.735075439453125,0.9603776480615138,2.4826427446752786,0.6620145869508385
1684115927746203400,2.755203369140625,2.255962817767262,2.3961142157793045,0.7256406714260578
1684115927766332400,2.77533251953125,-0.098556235820055,1.5946072792470454,-1.6287223148167131
1684115927786461400,2.79546142578125,-2.0199515834122894,2.1347224564522502,-1.3665689234673977
1684115927806590200,2.815590087890625,-1.119234915587306,3.368818261450529,-0.3158820589274168
1684115927826719200,2.83571923828125,0.3891097922235727,3.238329594796896,0.5390773585900664
1684115927846848500,2.8558486328125,2.266990992259979,2.549741181436181,0.2910100679993629
1684115927866976300,2.875976318359375,3.6108313665688034,2.4882693523854016,0.23073709334433076
1684115927887104500,2.8961044921875,3.3641958623468873,2.705105930671096,0.7850526453375816
1684115927907233500,2.916233642578125,0.5256646270483732,2.6731702849671244,1.7033467631682753
1684115927927362600,2.936362548828125,-1.9889064568072556,2.506367026872933,-0.7708733133375644
1684115927947491600,2.95649169921875,-3.0575346362292763,3.4982743701860306,0.7298281862437724
1684115927967620600,2.97662060546875,-2.317895834589004,3.6678614137798546,0.7097603807270526
1684115927987748600,2.99674853515625,-0.521256162956357,2.238963167649507,0.8498167939320206
1684115928007877600,3.016877685546875,0.8697656492441892,1.3724883766442537,1.4334493335634468
1684115928028006700,3.037006591796875,0.330512641826272,1.3502107861235737,0.5524339760303497
1684115928048135400,3.057135498046875,-0.2499935824781656,0.9599071079403162,-0.6345110784754157
1684115928068264400,3.077264404296875,-0.24558161125481126,0.5626899971067905,-0.5459463675767183
1684115928088392400,3.097392333984375,-0.06137596746087074,0.6915478476881981,-0.7577446594342588
1684115928108521500,3.117521484375,-1.9729606996566056,1.6734709726035595,-0.41855742050409317
1684115928128650500,3.137650390625,-4.252878978028893,4.3174128249987955,-0.645178310701251
1684115928148779500,3.157779541015625,-4.767994154012203,4.898433720827103,-1.0026455949485302
1684115928168908500,3.177908447265625,-3.953268254944682,3.383094624084234,-0.6035951312080026
1684115928189037600,3.19803759765625,-4.403440126374363,2.9134517439872023,-2.536014853900671
1684115928209165600,3.21816552734375,-4.355985716760158,3.7974884951680896,-4.933146722289919
1684115928229294600,3.238294677734375,-1.6721780101835726,4.541837958717346,-4.0357986541152
1684115928249423600,3.258423583984375,-0.07425999895334243,3.3942297660827636,-1.306110070851445
1684115928269552400,3.278552490234375,-2.3703829776734113,2.2196429656296965,-2.8132600159198042
1684115928289681400,3.298681396484375,-4.433264771273732,0.8123042248785495,-4.878439565068483
1684115928309810700,3.318810791015625,-1.7441174572348594,0.44610652168691156,-3.2034844913870093
1684115928329938700,3.338938720703125,1.669208054462075,0.994257121309638,0.42926556926220655
1684115928350067700,3.359067626953125,1.502714008447528,0.5721142435342073,0.39828444780409333
1684115928370196500,3.379196533203125,0.2948743422120809,-0.11944120293855666,-4.023083841709792
1684115928390325500,3.399325439453125,1.8249094883054493,-1.12747082901299,-5.200149307236075
1684115928410454500,3.41945458984375,5.316555672523379,-0.277708687877655,-1.3802782998681067
1684115928430582500,3.43958251953125,3.773749892184138,0.6123264269351959,4.098125930951536
1684115928450711600,3.459711669921875,-0.7702560582220553,0.49086394730210303,0.7405684837058186
1684115928470840600,3.479840576171875,-1.1811223397016524,0.2073041953086853,-3.8484330849856137
1684115928490969600,3.499969482421875,3.3507097733080387,0.7329068630367517,-2.652463889285922
1684115928511098600,3.5200986328125,4.876491353610158,1.9926994193494318,3.2548154501736164
1684115928531227600,3.5402275390625,2.0761030942231415,2.3239736931979653,4.2983261394739145
1684115928551355600,3.560355712890625,0.38411563719809055,0.7790829232782125,0.992519776123017
1684115928571484700,3.580484619140625,0.9508686459600925,0.18572481618523595,-0.4257191288270056
1684115928591613400,3.600613525390625,2.259845212158561,-0.013103227201104163,0.4421997235067188
1684115928611742500,3.620742431640625,0.704547029992938,1.933393828421831,3.010003946508467
1684115928631871500,3.64087158203125,-0.7697562920063734,1.5157652132004498,2.10403841824457
1684115928652000500,3.66100048828125,0.4829968671888113,-0.5274608628153801,-2.215917369235307
1684115928672128500,3.68112841796875,3.212587835296988,-2.2372253840714693,-4.906542208480834
1684115928692257500,3.701257568359375,3.8042508289098738,-1.7695125952541828,-2.4977882913589475
1684115928712386600,3.721386474609375,2.7267501917243004,-0.9279454510122537,1.5203744605615734
1684115928732515600,3.741515625,1.051195983105898,-2.145221638634801,3.1428660642951725
1684115928752644600,3.76164453125,0.2951116580992937,-4.1026407780274745,2.3830302778005596
1684115928772772600,3.781772705078125,-0.5432879620224237,-5.553355426907539,1.908546095152199
1684115928792901600,3.801901611328125,-1.2468781296819447,-5.391569704714417,4.008777960720658
1684115928813030400,3.822030517578125,-2.4602824443072078,-5.263197007301449,5.262123240590095
1684115928833159400,3.842159423828125,-2.9312212094336747,-5.667177036398649,3.3321564640074968
1684115928853288700,3.862288818359375,-0.6780319480329752,-6.534619211131334,0.2769032167136669
1684115928873417700,3.882417724609375,1.8673405167996882,-6.821189250856637,0.23407003715932367
1684115928893546000,3.9025458984375,1.6268799018204212,-6.572382832336426,2.4044372229665516
1684115928913675000,3.922675048828125,-1.2222796949982642,-6.785715786415338,-0.29719401733130213
1684115928933804000,3.942803955078125,-0.5199819052368402,-7.213903205052017,-3.7769326138734813
1684115928953933000,3.96293310546875,2.646809224525094,-6.759649617266654,-3.0995036001697183
1684115928974062000,3.98306201171875,4.358414989733696,-5.1501124799132345,-0.2249086794517934
1684115928994190000,4.003190185546875,2.6942648031830787,-2.7426953643530605,1.5088359984591602
1684115929014318800,4.02331884765625,0.45966509144008155,-0.8511018653064966,3.135730805587768
1684115929034448000,4.04344775390625,-0.9509089779704809,-0.3819435538560152,3.4236458301812407
1684115929054577200,4.0635771484375,0.5983657061219215,-0.6475058768659829,1.2387339861929416
1684115929074706200,4.0837060546875,2.978323736870289,-1.669831154796481,0.0011463935561478137
1684115929094834200,4.103834228515625,1.6193728871911763,-0.9047551295608282,0.363789728734456
1684115929114963000,4.123962890625,0.8710381533980369,0.26674422627091404,1.163582883618772
1684115929135092000,4.144092041015625,0.8093237477630376,0.8511907126337289,0.8470575583517551
1684115929155221000,4.164220947265625,1.6475497648835182,-0.4073568120539188,-1.25047732321769
1684115929175350000,4.18435009765625,-0.6719885762155056,-1.1832821480840443,-0.734273475214839
1684115929195479000,4.20447900390625,-3.2084996892005204,0.6434229914665222,2.6885341505765914
1684115929215607000,4.22460693359375,-3.2138445573598147,1.1466864016145466,1.9899822693452238
1684115929235735800,4.24473583984375,-1.376322255718708,0.23304829289615153,-1.8318772814914583
1684115929255865000,4.264864990234375,0.8731617214232683,-1.1061796191811561,-2.279138233910501
1684115929275994000,4.284994140625,-0.315711963057518,-1.403838623675704,0.5266825719192624
1684115929296123100,4.305123046875,-3.4629110881209373,0.6060276190519333,1.948213504152
1684115929316252000,4.325251953125,-2.3376889148175715,0.6026479134857654,-1.7909262624219058
1684115929336380000,4.3453798828125,0.7400023742556572,-0.7154904488116502,-3.0678169607907533
1684115929356509000,4.365509033203125,0.6486743361234665,0.17517419607639312,-0.9404517352335154
1684115929376638000,4.385637939453125,-1.2965320951670407,0.7774860094755888,-0.24733035461828112
1684115929396767000,4.40576708984375,-1.4094342517256735,1.5805705705881117,-1.0358285372998566
1684115929416896000,4.42589599609375,-3.224425572606921,1.3100690376102924,-3.2179867717310784
1684115929437025000,4.44602490234375,-3.053445321089029,2.0864690054148434,-1.3694561693415046
1684115929457153000,4.466153076171875,-1.9394506442427635,2.5817566143780946,1.3248330376304684
1684115929477282000,4.486281982421875,-2.255230996361375,2.4653677847474813,0.5179521529749036
1684115929497411000,4.5064111328125,-0.47370939888358116,2.6381606386452914,-1.4465643973328173
1684115929517540000,4.5265400390625,0.970135071966052,2.7102532304316758,-1.3450756151922045
1684115929537668900,4.5466689453125,0.9459528168678283,2.588415195484459,0.8607078980416059
1684115929557798000,4.5667978515625,0.810762840655446,2.6093475088760254,0.6980424704045057
1684115929577926000,4.58692578125,0.37155367726683614,2.6492022571414706,-1.6955233760662376
1684115929598055000,4.607054931640625,-0.11888123096823691,2.6605636091113087,-1.7153247857317326
1684115929618184200,4.62718408203125,-0.013587795847654342,2.0258377188414336,0.6124544372290373
1684115929638313000,4.64731298828125,1.2224427766054868,1.6283932289928198,1.7881961068056522
1684115929658442000,4.66744189453125,1.7976982407748698,1.9850687783405183,-0.125791887139529
1684115929678570000,4.687570068359375,0.8540665603309869,1.896073274809122,-0.5172830215416848
1684115929698699000,4.707698974609375,0.4349643654257059,1.4044652311414478,0.08190393783524633
1684115929718828000,4.727828125,0.5556716427773237,1.2738006233990191,0.8741422568932176
1684115929738957000,4.74795703125,2.935161471492052,1.4358929273232817,1.6274217536121607
1684115929759085800,4.7680859375,0.8661345992654561,1.8596265814214943,0.14365531447976826
1684115929779215000,4.788215087890625,-3.3652959325432774,2.4896228128209708,1.243559798914194
1684115929799343000,4.808343017578125,-3.7291625624388454,2.571381935358047,0.6012225568577647
1684115929819472100,4.82847216796875,-0.3979372418016195,1.8098060271978378,0.05958353108614683
1684115929839601200,4.84860107421875,1.9259622171163557,1.3868272831201554,-0.47862552023679017
1684115929859730000,4.86872998046875,2.3821283605247734,0.835918032439053,0.6282876739159226
1684115929879858700,4.888858642578125,1.9869559072613714,0.7287959205865859,1.3630103542029857
1684115929899986700,4.908986572265625,1.021590533915162,0.4799813187599182,0.762024528710544
1684115929920115700,4.92911572265625,-0.29717268228232857,-0.4136369152367115,-1.2261916077449917
1684115929940244700,4.94924462890625,-1.2708850282132624,-0.42336598982959983,-2.3251789773344993
1684115929960373800,4.969373779296875,-0.7116103925079107,0.6708101800858974,-1.050826565271616
1684115929980502800,4.989502685546875,-0.6525538079053164,2.657840906149149,0.08866963257789612
1684115930000631800,5.0096318359375,-2.700022928318381,3.769440212291479,-0.6237706348828971
1684115930020759800,5.029759765625,-5.950653786283731,4.99058827291131,-1.9598941512040793
1684115930040888800,5.049888916015625,-6.1627452158689495,5.471451050680876,-1.472316970487684
1684115930061017900,5.070017822265625,-3.1639860092133283,5.921299096983671,-1.506093860144168
1684115930081146600,5.090146728515625,-1.2830752322226762,6.601444676169753,-4.011062272265553
1684115930101275600,5.110275634765625,-1.657484883442521,5.384882189774513,-4.046859269572794
1684115930121404700,5.13040478515625,0.15973346583843231,4.300096656277775,-1.0133636805787682
1684115930141532700,5.15053271484375,2.1897639601945875,3.2552795605540275,0.6185717510655522
1684115930161662000,5.170661865234375,0.8314432251125574,3.519577562716603,-1.0811968613550067
1684115930181790700,5.190790771484375,-2.057058202013373,2.865406382742524,-4.182222848786413
1684115930201919700,5.210919677734375,-2.511316465973854,0.9268997413516044,-4.352957601110637
1684115930222048800,5.231048828125,2.2182839522361752,1.2408335888206958,-0.8083952347412705
1684115930242176800,5.2511767578125,4.72945019608438,1.5558534779608248,2.4512659018978473
1684115930262305800,5.271305908203125,3.455206505092978,1.341118255868554,1.3998999690525233
1684115930282434800,5.291434814453125,1.7406097413748503,-0.22616379407942294,-2.8838614923655985
1684115930302563600,5.3115634765625,4.009430871671438,-1.195385258331895,-4.209036913692951
1684115930322692600,5.331692626953125,6.55378042319715,-0.6970902842462062,0.694530078369379
1684115930342822000,5.35182177734375,3.02086231739223,-0.3558908287107944,4.026026909424364
1684115930362950000,5.371949951171875,-1.4902508327156305,-0.7765782469809055,-0.308932678180933
1684115930383079000,5.392078857421875,-0.38700609794259067,0.3834685714662075,-4.785900982102752
1684115930403207700,5.412207763671875,4.284063805365562,-0.006619710400700569,-1.8356760892525315
1684115930423336700,5.432336669921875,3.8598248320937154,-0.2930442041754722,5.62594018612504
1684115930443465700,5.4524658203125,0.12866671192348003,-0.49284547650814053,4.964610951089859
1684115930463593700,5.47259375,-2.2527228129327295,-0.7514379605054855,-1.4834300467848778
1684115930483722800,5.49272265625,-0.19659926142096518,-0.44309038873612877,-5.435273821884393
1684115930503851800,5.512851806640625,4.375568369108438,-1.1805886712163687,-1.1449860274374484
1684115930523980800,5.532980712890625,3.896315949144959,-0.95544252974689,4.479358998450636
1684115930544109800,5.55310986328125,-0.08949497748613357,-1.4512117847472428,1.652130662932992
1684115930564237800,5.57323779296875,-1.8177777367293833,-1.0886743576288223,-2.0839587761595846
1684115930584366800,5.593366943359375,-0.2140525005251169,-1.1889625318080186,-1.3028867248907685
1684115930604496000,5.613495849609375,0.2608002231746912,-1.4492162270158528,3.271212458223104
1684115930624624600,5.633624755859375,-2.291510516488552,-2.0685142465293405,4.334520027144253
1684115930644753700,5.653753662109375,-2.4653958417981863,-3.5724715330362318,-0.11077040522694587
1684115930664882700,5.673882568359375,-0.8361673310250043,-3.9582799456268547,-1.8597784109823405
1684115930685010700,5.6940107421875,0.9439140045166015,-3.6570337302953004,-1.1293692099802195
1684115930705139700,5.7141396484375,0.2904278841972351,-2.7479262507438658,0.7428466577708721
1684115930725268700,5.734268798828125,-2.856664857882261,-2.1880799526304004,0.3648670391097665
1684115930745397800,5.754397705078125,-4.125145163041353,-2.3675994844347237,-1.3866922585636376
1684115930765526800,5.77452685546875,-1.1594546977728604,-2.9600156345024704,-1.1384896511554716
1684115930785654800,5.79465478515625,1.8083774556994436,-2.3211872773498294,1.8895891734868286
1684115930805783800,5.81478369140625,2.1474971823513505,-2.3028227686196563,3.996287896981835
1684115930825912800,5.834912841796875,2.9317104542553425,-2.3837176755428313,4.3547585130527615
1684115930846041600,5.85504150390625,2.429765140968561,-2.51911018858999,2.533607208237052
1684115930866170600,5.875170654296875,1.2905273017942904,-2.092314224311709,1.4364493921622634
1684115930886298000,5.895298095703125,0.8822153809726238,-2.3568889975890515,0.29553382903411984
1684115930906427100,5.91542724609375,2.4611580580979586,-3.3150025001108645,-0.481547399032861
1684115930926556400,5.935556396484375,4.05250838137567,-4.284376816837489,0.15677578507661818
1684115930946685400,5.955685546875,3.253107477211952,-3.4526410385191437,3.205671480037272
1684115930966814200,5.975814208984375,-0.2499988431751728,-3.218803056550026,3.950286316524446
1684115930986943200,5.995943115234375,-2.8960061036676166,-3.503759231337905,1.5416241693392394
1684115931007071200,6.0160712890625,-0.2935118216872215,-3.5694448786914346,-0.33742110604047776
1684115931027200300,6.0362001953125,3.4700516075253485,-2.287685405242443,1.2532248683601617
1684115931047329300,6.056329345703125,5.814539096441865,-0.59853638651371,3.0504627981469032
1684115931067458000,6.0764580078125,3.2944618163853883,-1.1162895097851753,2.3117696067936717
1684115931087587300,6.09658740234375,1.2547253360509871,-1.572052917611599,-0.1781532118871808
1684115931107715000,6.116715087890625,1.7993991994738578,-0.8690297361850738,-1.0903241706624627
1684115931127844400,6.13684423828125,4.474686330464482,-0.00343465062379837,0.5175557740684599
1684115931147973400,6.156973388671875,4.486075739485025,-0.1250035132408142,1.9730156447142362
1684115931168102100,6.17710205078125,-1.065854623055458,-1.119167695569992,0.3083797204732895
1684115931188231200,6.197231201171875,-5.6040580246627325,-0.1321662444770336,-2.596124162426591
1684115931208360200,6.217360107421875,-3.9862978333652017,1.4001368465483188,-1.3891057494461536
1684115931228488200,6.23748828125,1.6734557750344274,2.0602035143017767,1.6886626965165137
1684115931248617200,6.2576171875,2.723339506497979,1.166423367741704,0.7695011482015252
1684115931268746200,6.277746337890625,-3.9424703820765017,-0.5328022238433361,-1.096545967786759
1684115931288875300,6.297875244140625,-5.920520513826609,0.5408645342677831,-2.082681449700147
1684115931309004300,6.31800439453125,-1.7620196091502904,0.852758984863758,0.5516426795221865
1684115931329132300,6.33813232421875,2.8662019170343873,1.1902408811807632,2.6599393397331235
1684115931349261300,6.35826123046875,1.1189105059385298,0.24330431397259233,-0.8015779559418559
1684115931369390300,6.378390380859375,-5.499164402514696,-1.2172592364877461,-3.305661255791783
1684115931389519000,6.39851904296875,-4.330304163014889,0.3182663237154484,-2.5489804261967537
1684115931409648000,6.418648193359375,-1.3768226064562796,0.9065481504574417,1.0839292089283465
1684115931429776100,6.438776123046875,0.845979699987173,0.7059048743426799,2.7933009314745663
1684115931449905200,6.4589052734375,-0.6312023923188448,1.0471493380635977,-0.5601588711939752
1684115931470034400,6.479034423828125,-3.430350880777836,0.5555538616165518,-2.1216697903946042
1684115931490163200,6.4991630859375,-0.867940187382698,1.4386211832433937,-0.3663951254598796
1684115931510292200,6.519292236328125,1.5382424179464578,1.718778433316946,2.0507083945952354
1684115931530421200,6.539421142578125,1.6776485505491494,1.7819640805482864,1.4004825912460683
1684115931550549200,6.55954931640625,-0.4908265379011631,2.2383833219349385,-2.3324521832078693
1684115931570678300,6.57967822265625,-1.9273948802679777,2.445992345409095,-2.919230327388644
1684115931590807300,6.599807373046875,0.3160077311336994,2.999644172796607,-0.7464505274817347
1684115931610936000,6.61993603515625,1.3088807046085595,2.875613596241176,0.8979331745862961
1684115931631065000,6.640065185546875,2.5174586219906807,2.2676766364365815,0.159673406214267
1684115931651193000,6.660193115234375,1.9916408502072094,1.912977355597913,-1.7343655862882732
1684115931671322400,6.680322265625,0.4823416181504726,1.7554791014656423,-1.8800550369441509
1684115931691451400,6.700451416015625,1.8970558561056852,1.8341706531256436,-0.17549319889768958
1684115931711580200,6.720580078125,2.0100731634765863,1.46925188382864,0.15421762502640485
1684115931731709200,6.740709228515625,0.9197294113308191,1.3876526280283927,-0.8658262639686465
1684115931751837200,6.760837158203125,0.9951590385854243,1.751391539891064,-1.4132485493168234
1684115931771966200,6.78096630859375,0.9350707728475331,1.1291256104826926,-0.33730741653293367
1684115931792095200,6.80109521484375,0.4019154977828264,0.9508987488374113,0.9004121319204569
1684115931812224300,6.821224365234375,-0.9720090491443872,1.5414081885010003,-0.9826391642302275
1684115931832353300,6.841353271484375,-1.8325462667942045,2.052780378563702,-0.05651566794812679
1684115931852482300,6.861482421875,-2.2278069828629494,2.7425445577055214,1.6915812143117188
1684115931872610300,6.8816103515625,-0.7448428000241517,1.9076073529973625,2.1140037858113647
1684115931892740400,6.901740234375,0.7778349690437316,0.4107784570656717,1.0272428605884314
1684115931912869000,6.921869140625,-0.8157856372535228,-0.38629005862772464,0.4406473794981837
1684115931932998100,6.941998046875,-2.9510189658373593,0.07373802090585231,-0.07863339173197746
1684115931953127200,6.962127197265625,-2.803366982936859,0.9025184565499424,-0.39164018748402596
1684115931973255200,6.982255126953125,-1.3463169935554264,1.2503278317444027,-0.9496846968725323
1684115931993384400,7.002384521484375,-0.9510983630627393,0.5582768568396568,-0.8981035627171396
1684115932013513200,7.02251318359375,-1.2127905666410923,0.8864442507140338,-1.311792792662978
1684115932033642200,7.042642333984375,-2.9829145717918872,1.84092407290861,-0.8052417391464114
1684115932053771300,7.062771240234375,-5.424829000237584,4.398148741967976,-1.6579150915533303
1684115932073899300,7.082899169921875,-5.167461089599132,5.257732312154769,-2.609324712522328
1684115932094028300,7.1030283203125,-2.2649948500066994,4.329851743072271,-2.241300962947309
1684115932114157300,7.1231572265625,-0.6773661776006221,3.8012341114372012,-2.104064575599134
1684115932134286000,7.1432861328125,-1.8362883759319781,3.8036709831953046,-1.7820586269639431
1684115932154415000,7.1634150390625,-2.682926247566938,3.7336455530717965,-1.8130960086539387
1684115932174544400,7.18354443359375,-2.50128957747817,3.258572172358632,-2.23057074848786
1684115932194672400,7.20367236328125,-1.459693781888485,2.6336522213101388,-2.108656725694984
1684115932214801400,7.223801513671875,-1.1719289794206618,1.4140002444669604,-2.7123087016567586
1684115932234930200,7.24393017578125,-0.9414099127411841,1.012961237257719,-3.493443296767771
1684115932255059200,7.26405908203125,1.2105594465881586,1.3180085984379053,-2.3365656098760663
1684115932275188200,7.284188232421875,2.8373861569166183,1.7814245668441056,0.3367002444200218
1684115932295316200,7.304316162109375,1.4925824905335903,1.0281260731637478,1.4205100647523998
1684115932315445200,7.3244453125,-0.398214305177331,0.14854980852305888,-2.1859037776350974
1684115932335574300,7.34457421875,-2.173110931557417,-1.0133446836173534,-3.4472950013160704
1684115932355703300,7.364703369140625,1.1597872907280922,0.6232581553161144,-0.5789039036743343
1684115932375832300,7.384832275390625,2.635747147762775,1.0644833347022533,3.4709710604578254
1684115932395960300,7.404960205078125,1.4588298585355282,0.716246235615015,2.1519489010632036
1684115932416089300,7.42508935546875,2.311341006118059,0.6728969232320785,-1.7461116997919977
1684115932436218400,7.44521826171875,5.445937839239836,-0.5146089800268411,-3.259142373462021
1684115932456347100,7.46534716796875,7.33103905365765,-1.0058271475940943,-0.34637612752094865
1684115932476476200,7.48547607421875,4.831514147764444,0.12466565958857535,4.722206800827384
1684115932496604200,7.505604248046875,2.53538240121603,0.750435505464673,2.9286420065954326
1684115932516733200,7.525733154296875,1.9729788198351859,-0.05025017781257629,-0.9484688913419842
1684115932536862200,7.5458623046875,3.8098651616603134,-0.6287450622946024,-1.6936057058766483
1684115932556991200,7.5659912109375,4.131961272796988,-0.1673065314412117,-0.08329641510695218
1684115932577120300,7.586120361328125,2.070216958793998,0.8005629336804151,1.8939204806894063
1684115932597249300,7.606249267578125,0.6643745940804481,0.5378700286269188,0.6007119769871234
1684115932617377300,7.626377197265625,1.2029635846316813,-0.43737493369877334,-0.6393693321615457
1684115932637506300,7.64650634765625,1.8355933794051407,-1.1953279751867054,-0.06400777726918458
1684115932657635300,7.66663525390625,-0.7140823355793953,-1.4202923303484916,1.877574326044321
1684115932677764000,7.68676416015625,-2.0920207943230866,-2.014234374809265,1.1262985703632236
1684115932697893000,7.70689306640625,-0.7143640751302242,-3.160444098822772,-0.3009022241994738
1684115932718021000,7.727021240234375,1.5607599547028541,-4.341151135721803,-0.58098670129776
1684115932738150400,7.747150390625,0.9556769230246543,-4.022880720353126,0.5058770997777581
1684115932758279400,7.767279541015625,-1.2797247527509927,-3.4116023411661383,0.5351435262724756
1684115932778408200,7.787408203125,-1.307585404101014,-3.032322453561425,0.3294540726840496
1684115932798537200,7.807537109375,0.7800807021439075,-3.1819600573211906,0.3849313374951482
1684115932818665200,7.827665283203125,2.2291624891251325,-2.8111820406019685,2.1152532013505696
1684115932838794200,7.847794189453125,1.9670289715200662,-2.3061028132036325,3.2977976828098297
1684115932858923300,7.86792333984375,1.3208037821143865,-2.300096558526158,3.056379620975256
1684115932879052000,7.888052001953125,1.6205384238392113,-3.0689316440343855,2.225102984601259
1684115932899180800,7.908180908203125,0.46884968389272685,-3.650370473013818,1.9906872027441858
1684115932919308800,7.928308837890625,-0.6309890418291092,-3.519762563894689,1.8052553781561553
1684115932939437800,7.948437744140625,-0.37073300853371616,-3.270976311379671,1.5296953927449881
1684115932959566800,7.96856689453125,2.0306109245926143,-3.020324849514663,1.5288425753079353
1684115932979695900,7.98869580078125,2.3085347165256738,-2.976139086307585,1.262984776482731
1684115932999825000,8.008824951171874,0.33897301165759564,-2.0177619644135234,1.824304946541041
1684115933019953000,8.028952880859375,0.6468471206963062,-1.9226205054730177,1.1134843892365693
1684115933040082000,8.04908203125,2.0180080481290816,-2.248886011248827,0.6970350469276309
1684115933060211000,8.0692109375,4.601438148677349,-2.3896330370664596,2.1157390851713718
1684115933080340000,8.089340087890625,2.820923682415485,-1.761860034674406,3.397382092633843
1684115933100469000,8.109468994140625,-1.904937549266219,0.07033259637653827,1.8260557357311247
1684115933120597000,8.129596923828124,-5.7323529806643725,0.10635434235036373,-1.6961907539337873
1684115933140725800,8.149725830078125,-1.798417787221074,-0.1925163760215044,-0.40541327677071093
1684115933160854800,8.169854736328125,4.321832687267661,-1.2351777550160885,1.4493237790435551
1684115933180984000,8.189984130859376,4.583036230546236,-1.562207230901718,0.5473343148037791
1684115933201113000,8.210113037109375,-0.6228641875624656,-0.9804425309687852,-1.2878794176340103
1684115933221241000,8.230240966796876,-4.650967026478052,0.3203133193731308,-2.3798232984527945
1684115933241369900,8.250369873046875,-2.9739485905259846,0.6948872212439775,-1.0159033551242203
1684115933261499000,8.270498779296876,1.7226298480480908,0.7304384270966052,0.3667326137859374
1684115933281628000,8.2906279296875,1.7099135743379592,0.31888825500607487,-0.2044870920613408
1684115933301757000,8.3107568359375,-2.4747598824709653,1.0112614476025104,-1.46701857181862
1684115933321885000,8.330885009765625,-1.5728408531188964,1.5337147113889456,-0.4430708072528243
1684115933342014000,8.351013916015624,2.681874692687392,0.8546154263854027,-0.6304230785094201
1684115933362142700,8.371142822265625,4.715955339217186,0.5622931067436934,-1.38282739982903
1684115933382272000,8.39127197265625,-0.7929168028414249,0.6064274320244789,-3.4664521217286586
1684115933402401000,8.411401123046875,-4.347910546854138,1.5070751262664794,-2.500000706711411
1684115933422529000,8.431529052734374,-1.5662164665430782,2.203204456526041,-0.3353492682024836
1684115933442658000,8.451657958984375,1.1523188545435665,2.1167606833040713,0.32314393968917426
1684115933462786800,8.471786865234375,-0.7192986089229584,1.4207967727392912,-1.7864644607074558
1684115933482915800,8.491915771484376,-2.1592004796266555,1.6293986066430806,-2.26120831720531
1684115933503044900,8.512044921875,-1.1367945376753807,2.495275431755185,-0.11939444118738174
1684115933523172900,8.5321728515625,0.14027590117454528,3.084915395107865,0.9938595002941787
1684115933543302000,8.552302001953125,0.13608955540060996,2.274096440351009,-1.4494738550387323
1684115933563431000,8.572430908203126,-1.6380799257487058,1.3912977065324783,-1.3167064297981559
1684115933583560000,8.592559814453125,-0.5473451284587383,2.743929290062189,-0.3807514214619994
1684115933603689000,8.61268896484375,0.7371972537070512,2.845183678925037,0.9951365344926715
1684115933623818000,8.63281787109375,2.396907411983609,2.4055121587216854,0.6354087579675018
1684115933643946000,8.652946044921874,1.8470856642782687,2.0168577090501785,-0.9096522539526224
1684115933664075000,8.673074951171875,1.183939150688052,1.9721166500478982,-1.4175336792901156
1684115933684203800,8.693203857421874,1.3225398121267555,2.4772803408592936,-0.8345967207074165
1684115933704332800,8.713332763671875,0.9320674993783234,1.9694827944129705,-0.12336159125268459
1684115933724462000,8.733462158203125,-0.4057838636487722,1.7715134136825799,-1.0635638817697763
1684115933744589800,8.75358984375,-2.6377216627061366,0.30932869176119565,-3.3776737680792808
1684115933764719000,8.773718994140625,-1.32241940061748,0.02206014837771654,-2.1896929407849908
1684115933784848000,8.793847900390626,-1.9597528430372475,2.180889456604421,0.7704308302670717
1684115933804977000,8.813976806640625,-2.779276497775316,2.4228175137877463,2.8417084040299057
1684115933825106000,8.83410595703125,-2.078264071649313,0.7268325115591288,3.193438313668966
1684115933845234000,8.85423388671875,-0.8344663723260164,0.1950561236321926,2.2003771241456267
1684115933865363000,8.874363037109376,-0.6539303569555283,0.18898820189535617,0.6153291158825158
1684115933885492200,8.8944921875,-0.002119476372003555,0.49557694729864593,0.1950695676356554
1684115933905621200,8.914621337890624,0.013393734580278396,0.16876520581692456,0.2974813098400831
1684115933925750300,8.934750244140625,-1.2523767270982264,0.10410568664073944,-0.48903468604832884
1684115933945878300,8.954878173828124,-2.6783155389010904,1.1457920831233261,-1.7887766831725835
1684115933966007300,8.97500732421875,-2.993898322620988,2.6221488305211067,-2.5432237623661753
1684115933986136300,8.99513623046875,-2.9731653311938047,4.222364012777805,-1.890772099661082
1684115934006265000,9.01526513671875,-3.225223444986343,4.6378071006536485,-0.7604647320479154
1684115934026394400,9.035394287109375,-3.772173436647653,4.782781388777495,-2.2867954706653952
1684115934046523400,9.0555234375,-5.072932209599018,5.528685680553317,-3.7654026273384686
1684115934066651400,9.0756513671875,-4.768721299242973,5.68461273984611,-4.681784774067998
1684115934086780400,9.095780517578126,-3.156920308610797,4.591000049032271,-3.7686587065249677
1684115934106909200,9.1159091796875,-0.6481476819008588,3.4068665448158977,-1.8342722138039766
1684115934127038200,9.1360380859375,0.21251696152091026,2.784125691372156,-1.6616294359013437
1684115934147167200,9.156167236328125,0.379276964995265,1.8782097013384103,-2.158817033267021
1684115934167295200,9.176295166015626,2.9201579636275765,1.482068110781908,-2.0955869623720647
1684115934187424300,9.19642431640625,4.79610614977479,0.6920370925098657,-0.2924573441982269
1684115934207553000,9.216552978515624,3.588497369685769,0.7565431746900081,-0.12386135746836661
1684115934227682300,9.236682373046875,1.5464970360726118,-0.14359598550796507,-1.0146455370828509
1684115934247811300,9.256811279296874,3.515605151954293,-0.5808154363840818,-0.6635010261163116
1684115934267939300,9.276939208984375,2.961267388129234,-1.349841076028347,0.41398441350013016
1684115934288068400,9.297068359375,-1.2837521085709334,-1.2502069818437098,-3.032174569523334
1684115934308197400,9.317197265625,-2.739274157732725,-1.3618538776442408,-4.142125231675803
1684115934328326100,9.337326171875,1.134304474425316,-2.6866286092162133,-0.8315864329755306
1684115934348455200,9.357455078125,1.4633739317059515,-3.4992630889624357,3.34148455658406
1684115934368583200,9.377583251953125,-3.140563632571697,-3.4271146753355857,0.08016980751901864
1684115934388712200,9.397712158203126,-3.1921956201314923,-2.977019668534398,-3.506360646007955
1684115934408841200,9.41784130859375,1.007092052963376,-2.52568459854424,-2.671084418603778
1684115934428970200,9.43797021484375,4.425206552502512,-1.0995186999872326,1.0696785652577876
1684115934449099300,9.458099365234375,2.7042963678538796,-0.17314356703162193,5.937103399837016
1684115934469227300,9.478227294921876,-0.2357762565553188,-0.5082242474257945,2.7166657278224826
1684115934489356300,9.498356201171875,1.0933850195378065,-1.2523843258827925,-0.34213089116662737
1684115934509485300,9.5184853515625,4.211763708308339,-1.3653510721102355,-0.4532464565694332
1684115934529614300,9.5386142578125,4.515803353750705,-0.7719070402994751,2.295262854759395
1684115934549743000,9.5587431640625,1.0698930847913026,-1.3057193179681896,3.3225872561514374
1684115934569871000,9.57887109375,-0.5876245318770408,-2.038289204135537,0.822795808276534
1684115934590000000,9.599000244140624,-1.1244739852845669,-1.9217910689115523,-0.46332770560085773
1684115934610129400,9.61912939453125,-1.4713251829713583,-1.1411083092212677,1.5594970951601863
1684115934630258400,9.639258544921875,-1.8859826734274625,-1.1368889379605651,4.249038376952708
1684115934650387200,9.65938720703125,0.2181663655847311,-1.668413981474936,4.089924212056398
1684115934670516200,9.67951611328125,2.7633856856822967,-2.2906883864507077,2.346593229024112
1684115934690644200,9.699644287109376,4.048195194351673,-2.4280393400892613,1.5859329744040964
1684115934710773200,9.719773193359375,4.323410896369815,-1.7324585836231707,4.019169298614561
1684115934730902300,9.73990234375,1.2283388489067553,-0.384012176823616,4.346133600309491
1684115934751031000,9.760031005859375,-1.6737193944066762,-0.5963105271577834,0.895816328562796
1684115934771160300,9.780160400390624,0.47496845903396606,-2.2487302361652253,-0.738238287192583
1684115934791288000,9.8002880859375,4.510655469468236,-3.583676233139634,0.9444453349143266
1684115934811417300,9.820417236328124,5.067840439417958,-3.475384492985904,2.8932813548788427
1684115934831546400,9.84054638671875,1.4933166500270365,-3.262428263264894,4.031389897762239
1684115934851675400,9.86067529296875,-1.3890017045497893,-3.004895225192606,3.251761323300004
1684115934871804200,9.88080419921875,-2.310617952540517,-2.453203299701214,1.7432412589222193
1684115934891931600,9.900931640625,0.229198047208786,-1.1084443492427467,3.297458075591922
1684115934912060400,9.921060302734375,3.029359512102604,0.2179565222263336,5.239956416967511
1684115934932189400,9.941189453125,3.8521301859378814,-0.4835679450750351,2.7848329628586765
1684115934952318500,9.961318359375,2.7276649684816596,-2.122151144170761,-1.438994838861376
1684115934972447700,9.98144775390625,1.6877216162741184,-1.9194681789219379,-1.6573185869649052
1684115934992575700,10.00157568359375,1.3758289192438125,0.4515595263957977,2.268590390280634
1684115935012704500,10.02170458984375,0.5553448950409889,1.660329166957736,3.0192461143672467
1684115935032833500,10.04183349609375,0.2044365309178829,0.10505495018959045,-1.805286796207726
1684115935052962600,10.061962646484375,0.2751239320814609,-1.3557950159966945,-2.8736101474642752
1684115935073091600,10.082091552734376,-2.4752497118145227,0.3099865711480379,2.1363111869484186
1684115935093219600,10.102219482421875,-3.5810926463872192,2.157068143773079,0.9969067590355872
1684115935113348600,10.1223486328125,-1.3417296657651663,-0.36244565718173977,-4.523987829250097
1684115935133477400,10.142477294921875,2.0158184291303156,-0.7965361623823642,-4.579825451806188
1684115935153606700,10.162606689453124,0.6160510004162788,0.5168196418136358,0.8618506383359432
1684115935173735700,10.182735595703125,-3.162197956752777,1.371862938222289,-0.8920022501673549
1684115935193863700,10.20286376953125,-3.4500755719453093,-1.1857295412361621,-5.328782701411843
1684115935213992700,10.22299267578125,1.2259341258525849,-1.507761939486861,-4.117029076603055
1684115935234121500,10.24312158203125,4.537015068605542,-0.15336568437218664,0.08005991740375756
1684115935254250500,10.26325048828125,1.1009341197431086,1.2275924144536257,0.836443079226464
1684115935274379500,10.283379638671875,-5.981281564259529,0.38670273108184333,-2.306840772089362
1684115935294507500,10.303507568359375,-4.680257418370247,1.0143208351731299,-3.07184227078408
1684115935314636500,10.323636474609375,1.7952800737172365,1.3655787433862685,0.3368640566796064
1684115935334765300,10.343765380859375,4.851818684646487,1.9212930562615393,2.145194604497403
1684115935354894600,10.36389453125,0.23091595704257487,1.3183815234035252,-0.04827336131427437
1684115935375023600,10.384023681640626,-4.400804517173767,1.8686551065295933,-2.3466508044302463
1684115935395151600,10.404151611328125,-2.312001515853405,3.232126063981652,-0.7531551396869123
1684115935415280600,10.42428076171875,2.3519594322323796,3.2907237989008427,2.246230674434453
1684115935435409700,10.44440966796875,3.0876264076322317,3.1412551219671965,1.847624301199615
1684115935455538400,10.464538330078126,-0.9307184228569269,2.2850039110735056,-1.8239928118519484
1684115935475667500,10.48466748046875,-2.019980809506774,2.5033722289711235,-3.339417979443073
1684115935495795500,10.50479541015625,1.0596189435362815,2.641398889914155,-0.07737155510261655
1684115935515924500,10.524924560546875,1.8411515980541704,1.6984931856572627,1.637408748488873
1684115935536053800,10.5450537109375,0.33980829343795776,2.027632493303716,-0.7365630474567413
1684115935556182500,10.5651826171875,-0.06026128421723842,1.909900432370603,-2.513404962685704
1684115935576311600,10.5853115234375,1.6401614081978797,1.164923484572768,-1.3218278644651174
1684115935596439600,10.605439453125,2.670901463252306,0.9221598533481359,0.13962766639888285
1684115935616568600,10.625568603515624,1.0506073695629834,1.1461845895722507,-0.7316781980246305
1684115935636697600,10.645697509765625,1.302643271523714,0.08658113586604595,-2.8191122490793465
1684115935656826600,10.66582666015625,1.1311258443892,-0.8331202184140681,-4.742925471468269
1684115935676955400,10.685955322265626,-1.2731675861924885,0.43374622180759903,-1.0539796224750577
1684115935697083400,10.70608349609375,-3.5042964069545266,2.000142428831756,1.7427585899718105
1684115935717212400,10.72621240234375,-3.458562245261669,1.7708403367266057,1.8589932519540189
1684115935737341700,10.746341796875,-1.1251403402388096,0.8440414254009723,1.5822230139702558
1684115935757470700,10.766470703125,0.5871083990484476,0.19061025013923644,1.7802965857274828
1684115935777599500,10.786599609375,0.026226912668347358,0.2827104416877031,1.2514121198497712
1684115935797727500,10.8067275390625,-1.665722550433874,1.2634414342090488,0.9937246218681335
1684115935817856500,10.8268564453125,-3.351755482968688,1.8583651831835508,0.5870663134723901
1684115935837985500,10.846985595703124,-3.4989480316638946,1.7543088886424898,-0.5081227598126977
1684115935858114600,10.867114501953125,-1.6143787321656942,1.7688024011582135,-0.14583923439010976
1684115935878243300,10.887243408203124,-0.4859866966545581,2.288302075836062,-0.2994503448907286
1684115935898371800,10.907371826171875,-3.0308295846551654,3.8330005380541086,-2.297152029506862
1684115935918500900,10.9275009765625,-6.40670653244555,4.999042797523737,-4.643146708115935
1684115935938630100,10.947630126953126,-5.576242966020107,4.498476371374726,-2.8865818572401998
1684115935958759200,10.96775927734375,-1.217841420289874,3.056561407282948,-0.5474563337482512
1684115935978888000,10.987887939453126,-0.007453238615393638,2.3145257736340166,-0.2658439164303243
1684115935999016000,11.008015869140625,-1.5537398468077182,3.44266061951369,-3.4932422212377188
1684115936019145000,11.02814501953125,-2.149433703371882,2.547762867100537,-3.8831016627848145
1684115936039274000,11.04827392578125,1.4522475575357674,1.1710472281500697,-1.996009566810727
1684115936059403000,11.068403076171874,2.718050167918205,0.35540275293290613,0.027701223004609345
1684115936079532000,11.088531982421875,0.8525304368048906,1.2507295444130897,-2.3030023629702625
1684115936099660000,11.108659912109376,0.23679741629660128,0.2713549349367618,-2.934126283225417
1684115936119788800,11.128788818359375,3.1718583500236273,0.02879705541729927,-1.1054447290353477
1684115936139918000,11.14891796875,3.105357879155874,-0.8550666772842407,1.910714525232464
1684115936160047000,11.169047119140625,-0.6447293978899717,-1.1343395457386969,-0.21796821266412733
1684115936180176100,11.189176025390625,-0.802409438329935,-1.6707494386851787,-3.8572570274323223
1684115936200304000,11.20930419921875,2.9519103617191313,-1.3629741138458251,-4.759208205488324
1684115936220433000,11.229432861328124,4.929479431954026,-0.7339484810441732,0.18390753763020037
1684115936240562000,11.24956201171875,2.062338772764802,-0.25718495528697966,2.558967274942994
1684115936260691000,11.26969091796875,-1.1111492242872714,-0.325225349073112,0.3135916099026799
1684115936280820000,11.289820068359376,-0.6561363425672054,0.9305120866298675,-1.269834057855606
1684115936300948000,11.309947998046875,1.0880214466780425,0.606848872306943,1.7493448364943265
1684115936321077000,11.330076904296876,-0.9921955126047134,0.5979729074120521,5.556396109777689
1684115936341206000,11.3502060546875,-3.0954186689436436,0.7174135258287191,3.083777915510535
1684115936361335000,11.3703349609375,-0.092657240909338,0.27300153310000896,-1.0214894116282462
1684115936381464000,11.390464111328125,4.715974628439545,-1.7498592157572508,-2.873812099777162
1684115936401592000,11.410592041015626,5.150326999446749,-3.0941952646285293,-0.01917144119888544
1684115936421721000,11.43072119140625,1.1903729831278322,-1.9744158669009804,1.8582851036846637
1684115936441849900,11.450849853515624,-0.1294119773328304,-2.207353977420926,-0.12881255013495682
1684115936461979000,11.470978759765625,2.645737795901298,-4.61327763955295,-4.1752457032501695
1684115936482108200,11.491108154296874,5.852242511892318,-7.078790385729074,-1.9400579624861478
1684115936502236000,11.51123583984375,4.0050282527983185,-4.8756461349576705,6.359964070492983
1684115936522365200,11.531365234375,-1.8024901512265203,-3.4671249064236878,7.423480021467804
1684115936542494000,11.551493896484375,-4.0295010152757165,-3.2106893081992864,5.117289237719774
1684115936562623000,11.571623046875,-0.6947358300745486,-4.297537034922838,2.655916075566411
1684115936582752000,11.591751953125,2.6840058594971894,-4.206980565685034,3.340201238775253
1684115936602880000,11.6118798828125,2.669593887785077,-3.092301121445,4.942383921712636
1684115936623009000,11.632009033203126,-0.09495908811092377,-2.5103572655528783,3.7833480338737364
1684115936643138000,11.652137939453125,-0.7829466129690408,-2.47102069594264,1.1076517375603319
1684115936663266800,11.672266845703126,1.8360878849238156,-2.822194725264609,-0.1805085428416729
1684115936683396000,11.69239599609375,3.4104438187807795,-1.4483406132251024,1.9024658984556793
1684115936703524000,11.712524169921876,4.151358631706238,0.23526070824861525,3.1728529140189288
1684115936723653000,11.732653076171875,3.0823429142713543,0.4205260902285576,0.07797054390907288
1684115936743782100,11.7527822265625,4.579402257958054,-1.1364613601982594,-3.7334260651022193
1684115936763911000,11.772910888671875,7.822455958667397,-1.321476274548471,-1.5608096390634774
1684115936784040000,11.7930400390625,5.1739726634502405,-0.19754910949170587,2.9977020988181233
1684115936804168000,11.81316796875,-2.7544547757297755,0.13781447949707507,2.4959812419369816
1684115936824297000,11.833296875,-5.107520707899332,-0.1461377789452672,-1.7362220278099179
1684115936844426000,11.853426025390625,-0.21545301497280597,-0.9742758250325918,-1.803011252491176
1684115936864555000,11.873554931640625,3.1562440167844295,0.717273825097084,1.7931012683734298
1684115936884683000,11.89368310546875,-3.9825188993483778,0.517996284377575,2.193894191867113
1684115936904812000,11.91381201171875,-8.38155991398096,1.654168598501384,0.9806395148456096
1684115936924941000,11.933941162109376,-5.970618131425977,1.7044874576359985,-1.1023869488999247
1684115936945070000,11.954070068359375,-0.7198778701156378,1.7272534161955118,-0.07631693148314952
1684115936965199400,11.974199462890626,2.8253450059890746,2.4981807978078723,-0.14780045146048068
1684115936985328000,11.994328125,0.5211503644943237,1.0091001779153943,-1.5390350296288728
1684115937005456100,12.0144560546875,0.6559913811385631,0.9153200704559683,-1.8393027553170918
1684115937025585200,12.034585205078125,2.2444793007224795,1.1743658511787651,-1.0271028675958513
1684115937045714200,12.054714111328124,2.7690695765376088,2.2728858955174682,0.2882230676293373
1684115937065843200,12.07484326171875,-1.3734580984592437,1.6866583709567784,-0.9783518422998487
1684115937085971200,12.09497119140625,-4.18042865884602,1.5576912147819995,-0.6281615633182227
1684115937106100000,12.115099853515625,-2.3235025685548782,1.5153455264836548,-0.7593076709672808
1684115937126229000,12.13522900390625,-0.2973562221556902,1.3696926084458827,-0.3201224729761481
1684115937146358000,12.15535791015625,0.37583880724012847,1.2181594001978635,0.10511340237855911
1684115937166487300,12.1754873046875,-0.5076701206743717,0.6545236466735601,-0.6066293843373656
1684115937186615300,12.195615234375,-2.366100770309567,-0.27320085506439207,-2.0797692155152556
1684115937206744300,12.215744384765625,-0.9313988063365221,0.4601292018204927,-1.4649397197179495
1684115937226873000,12.235873046875,1.0730290447294712,1.2678899380505084,-0.13807517625987528
1684115937247002000,12.256002197265625,1.1135323200315237,1.01243692112267,0.09473170909583568
1684115937267131100,12.276131103515626,0.6620598873972893,0.697305096040666,-1.4281005198813974
1684115937287259100,12.296259033203125,1.121739591884613,1.0900187579751015,-2.3359778731159864
1684115937307388200,12.31638818359375,0.9027928895771503,1.2583300825446844,-1.4378836627490819
1684115937327517000,12.336516845703125,1.7780957146823406,1.2229431273430584,1.0161698240406811
1684115937347646200,12.356646240234374,1.377495391151309,1.71506876514405,0.6071221362903714
1684115937367775200,12.376775146484375,0.4312871382176876,2.1032316319063304,-0.808838302333653
1684115937387903200,12.3969033203125,1.176117663282156,1.6285273767665027,-1.8929376071318982
1684115937408032300,12.4170322265625,1.9610750315517187,0.6282163622453808,-1.15305885925591
1684115937428161000,12.4371611328125,2.006861800214648,1.3139303892135619,0.6630643882647156
1684115937448290000,12.4572900390625,-4.228765111991763,1.6748738251388071,-0.3570052196934819
1684115937468419000,12.477419189453125,-7.307107558450102,2.035676099027693,-0.39611119541823864
1684115937488547000,12.497547119140625,-6.380358039224148,0.65280807492733,-0.47000645271241664
1684115937508676000,12.517676025390625,-1.6357476834088562,-0.25283026720881463,0.24960312185585498
1684115937528805000,12.53780517578125,2.0015549259781835,-0.7294991004198789,1.5847919876754284
1684115937548934100,12.55793408203125,1.759616639661789,-0.671855305224657,1.8087880823269484
1684115937569062100,12.578062255859376,0.13463994111418723,0.0842436328291893,0.5213704369857907
1684115937589191200,12.598191162109375,-0.9597025252789259,0.28179771075695753,0.12734919958412647
1684115937609320200,12.6183203125,-1.014514896440506,0.5470373776838183,0.34723113691508767
1684115937629449200,12.63844921875,-1.8258207579314707,0.04419891494959593,0.22771526130512357
1684115937649578000,12.658577880859376,-1.1791150915324686,0.24524258855879305,0.026859073092043398
1684115937669706000,12.6787060546875,-1.001845969003439,2.2118767155423757,0.5009636087730527
1684115937689835000,12.6988349609375,-2.8787638769656416,3.972729619000852,-0.17624898570105432
1684115937709964000,12.718964111328125,-5.931033140012621,4.750532439340651,-1.1586973035342991
1684115937730093300,12.73909326171875,-5.129608036544918,4.579593688876926,-2.214650710300356
1684115937750222000,12.75922216796875,-2.058709476351738,4.420460819280147,-2.5478935077428817
1684115937770350300,12.779350341796874,-0.2764934668689966,4.5869911056518555,-2.6981962974131104
1684115937790479000,12.79947900390625,-1.243015024513006,3.8885590514078734,-3.6083196760088203
1684115937810608000,12.819608154296875,-1.0446914235174656,2.7556317105546593,-3.431515832903981
1684115937830737200,12.839737060546875,-0.622798136588931,1.9052096442058681,-2.161115081076324
1684115937850866200,12.8598662109375,-1.1325479861468075,2.6494042094543575,-2.017695621179044
1684115937870994200,12.879994140625,-0.420049704888463,2.8136279724493622,-2.7583704878687856
1684115937891122400,12.900122314453125,2.029911836412549,2.6107465620189902,-1.936703245230764
1684115937911251200,12.920251220703125,3.4828923843979833,2.114174173942208,-0.33956513233184815
1684115937931380500,12.94038037109375,1.7674767055124043,1.8776736947655677,-0.9269888809397816
1684115937951509500,12.960509521484376,-0.5142003992259502,1.5011802230089901,-1.2100263626247643
1684115937971637500,12.980637451171875,0.7944494192361832,1.962672529876232,0.34338849001228805
1684115937991766500,13.0007666015625,1.1820616663783787,1.314641167831421,2.36968535079807
1684115938011895300,13.020895263671875,0.14622516496777532,0.591052168238163,-0.29341946722865103
1684115938032024300,13.0410244140625,1.8028624916702507,-0.2538642864316702,-3.2362083648592233
1684115938052153300,13.0611533203125,3.4833272686839103,-1.5167098005741835,-3.4474931542366742
1684115938072281300,13.08128125,4.8396156211555,-1.6899129888385533,-0.15398293948769567
1684115938092410400,13.101410400390625,3.342987654623389,-1.1239771416783333,2.4390593312755224
1684115938112539600,13.12153955078125,0.8340379177808761,-1.3679542403459548,-0.970039794898033
1684115938132668400,13.14166845703125,1.5856939049512147,-1.792604717028141,-4.352769677323103
1684115938152797400,13.16179736328125,3.7715690410137173,-2.448702481150627,-4.582850937107205
1684115938172925400,13.181925537109375,4.088340157735347,-1.8660364484637975,-1.5642054189816117
1684115938193054500,13.202054443359375,1.2513953148454426,-1.0852060969963668,0.7017553534477948
1684115938213183500,13.22218359375,-1.900678138256073,-0.8091969065129756,0.48214054262042044
1684115938233312300,13.242312255859375,-1.9476327816545962,-1.0902157418519258,-0.38006139337122435
1684115938253441300,13.262441162109376,0.13801964668035507,-2.212697384275496,0.8754621073201299
1684115938273569300,13.2825693359375,0.4832873745679855,-2.2233616938918828,3.0589281364142895
1684115938293698300,13.3026982421875,-1.1108937882214784,-1.818399375759065,3.4388390153989192
1684115938313827600,13.32282763671875,-1.2729478059619665,-2.1589748541772362,1.7644310542061923
1684115938333956600,13.34295654296875,1.2636486472189425,-3.0491333031088113,1.2329001654729246
1684115938354084600,13.363084716796875,3.5202632068932056,-2.9240228223621845,2.3811343810513614
1684115938374213400,13.38321337890625,2.7830753055363893,-2.1979630487412214,2.9847654603555798
1684115938394342400,13.40334228515625,0.4408540079861879,-3.2409134738102554,1.5332207903921604
1684115938414471400,13.423471435546874,0.18898937093913554,-3.9219256066977977,-0.07307926473617553
1684115938434600400,13.443600341796875,2.166638520672917,-4.726766948349773,-0.12191782218515872
1684115938454728400,13.463728515625,3.838277601674199,-5.14512241654098,2.493087566322088
1684115938474857200,13.483857177734375,1.9526526556432247,-4.856644497367739,4.354086897401511
1684115938494986500,13.503986572265624,-1.7662796046823261,-4.6894440566495055,4.595596436911821
1684115938515115500,13.524115478515625,-3.2580753287523985,-4.226603550043702,3.2484555597528812
1684115938535244500,13.54424462890625,0.1867506521016359,-4.275029727299511,2.161263841897249
1684115938555372500,13.56437255859375,4.630478365200758,-4.246507397170364,2.5060280041769145
1684115938575501600,13.58450146484375,3.214040956714749,-3.469424415537715,3.4776147362560033
1684115938595630300,13.60463037109375,-1.0562029976129532,-1.968431531794369,2.491328739956021
1684115938615759400,13.62475927734375,-2.454842299079895,-1.633424501158297,-0.3308899507060647
1684115938635888400,13.644888427734376,1.269088207924366,-1.7667820012465119,-0.5833370638161898
1684115938656016400,13.665016357421875,4.178665156304836,-1.218384148864448,0.8911383998796343
1684115938676145400,13.6851455078125,2.719339623206854,-0.3713733522638678,1.7703071066327392
1684115938696274400,13.7052744140625,-1.0824147127121686,0.8949716944321989,1.0977933374993503
1684115938716403500,13.725403564453124,-3.2844980562537907,1.3826771777033806,-1.154255229433626
1684115938736531500,13.745531494140625,-0.6422849273473024,0.8857710276275873,-2.2198712214276193
1684115938756660500,13.765660400390624,2.39319452894032,-0.03407294999361038,-0.6962032722786069
1684115938776789500,13.78578955078125,-0.7598083139657974,-0.041755905711650845,0.4156761659793555
1684115938796918300,13.805918212890624,-4.871241762518882,1.3936726189702748,-0.6438287957884371
1684115938817047300,13.82604736328125,-2.114741160175204,1.2861349120542407,-0.9941332026690244
1684115938837175300,13.84617529296875,2.546971716722846,0.4440323457613587,-1.4051095203943549
1684115938857304300,13.86630419921875,2.768584423369169,-0.6045110770091414,-2.0412878014296294
1684115938877433300,13.886433349609375,0.4084212264150381,-0.7271113285005092,-2.7149481102496384
1684115938897563400,13.9065634765625,-1.51360131316483,1.197500058528781,-0.6977654070287942
1684115938917692400,13.9266923828125,-1.1720458837985992,1.976740218195319,0.3026262715131044
1684115938937820400,13.9468203125,0.049130818393826485,1.8953905532419681,-0.6185499776251614
1684115938957949700,13.96694970703125,-1.1724930430442093,1.4210817271605134,-4.141449816632271
1684115938978078700,13.98707861328125,0.4901221890240907,1.452845231167972,-4.545741395896673
1684115938998207500,14.00720751953125,2.6865415154546497,2.6078110930889844,0.06933408685848116
1684115939018336500,14.02733642578125,1.4321160391330718,3.1081939793646334,2.6142458023115993
1684115939038464500,14.047464599609375,-1.0005471613645553,3.1230601245850322,1.6140595832139253
1684115939058593500,14.067593505859374,-2.5206331603735683,2.402120470456779,-2.800573260565102
1684115939078722600,14.08772265625,-0.9872668240308761,2.7552172845348712,-1.2162493287928402
1684115939098851300,14.107851318359375,1.3146148643463849,2.430255554834008,0.8181380455985665
1684115939118979300,14.127979248046875,1.5967302627503872,1.5618652855962514,0.516807951375842
1684115939139108600,14.148108642578125,1.4508803608357905,1.377312728060782,-1.8959364966869354
1684115939159237600,14.168237548828126,-0.20605799463987348,1.1289055379912256,-2.835674676823616
1684115939179366700,14.18836669921875,-0.08575871356725692,1.8784794581905007,-1.454452958625555
1684115939199495700,14.20849560546875,0.3878700212955475,1.66267134616971,-0.08135580243319272
1684115939219623700,14.228623779296875,2.197805227831006,1.4173226668879388,0.8206891913861036
1684115939239752400,14.24875244140625,2.6207348720699546,1.5104878573194145,-1.4531322314158082
1684115939259881500,14.268881591796875,1.245281215879321,1.3149408814303576,-0.1628495520323515
1684115939280010500,14.289010498046874,-0.5542892485082149,2.158108592736721,1.4726564315751194
1684115939300139500,14.309139404296875,-0.4461059371650219,2.936328469444811,3.3191894304066896
1684115939320267500,14.329267578125,-2.7662112644970414,2.4700708478718996,0.07738485297560692
1684115939340396500,14.349396484375,-6.552808947816491,1.0904429747365414,-2.3350541823998094
1684115939360525600,14.369525634765624,-4.292949122610688,1.3723572976104914,-1.0007038132309913
1684115939380654600,14.389654541015625,-0.8346265313237905,1.3745399023465812,1.3402917419165372
1684115939400783600,14.40978369140625,1.6288433108478784,1.0838348086431622,1.6215122373074293
1684115939420911600,14.42991162109375,2.1302198843359945,0.7966084969662129,1.061940079960227
1684115939441040600,14.45004052734375,0.5295248096078634,1.0203700522094965,1.795659720684588
1684115939461169400,14.47016943359375,-2.6928181115061043,1.6834247958630322,2.317016129145026
1684115939481298400,14.49029833984375,-4.160495293363929,3.5436841222301125,1.740307105166465
1684115939501427700,14.510427734375,-3.117527624899149,5.650599995607138,0.32736849858164785
1684115939521555500,14.530555419921875,-1.851649026671052,6.910291429632902,-0.02573006906211376
1684115939541684700,14.550684814453126,-1.441143979719281,6.174729668173193,1.1293082735732196
1684115939561813500,14.5708134765625,-1.874582743012905,4.791336451154947,-1.4027023131221532
1684115939581942500,14.590942626953124,-1.551558411115408,4.818901042167842,-4.797620061469078
1684115939602070500,14.611070556640625,0.31933073807656764,4.766446924570203,-4.331417677214741
1684115939622199600,14.631199462890624,2.228973104032874,3.2129432246059175,-1.6146397211894392
1684115939642328600,14.65132861328125,4.862720017889142,1.5740131117686629,-0.1890174279898405
1684115939662457300,14.671457275390624,2.6494471718132493,1.8737129744410514,-2.206080742614716
1684115939682586400,14.69158642578125,0.15079612614512442,2.1554238836973902,-3.4706560031592844
1684115939702714400,14.71171435546875,1.1824123795121908,1.75248050417155,-2.6562694190487264
1684115939722843600,14.73184375,2.4985277115494013,0.98885409322232,-0.014228413572441785
1684115939742972700,14.75197265625,1.0421119284182787,1.0704133092731236,-0.2147425286158919
1684115939763101700,14.772101806640626,0.07968085495829581,0.3769634273558855,-1.802699702323973
1684115939783230500,14.79223046875,0.8545283326238393,-0.6492801930621266,-0.3443337349731475
1684115939803358500,14.8123583984375,0.4295405868113041,1.8263515038073062,-0.09306538331881165
1684115939823487500,14.832487548828125,-0.2876058125138283,-0.3204652950644493,0.5118745866268873
1684115939843616500,14.852616455078126,-0.14777122536599635,-0.5703621391698718,-2.223697209456563
1684115939863745500,14.87274560546875,0.7414402981042861,0.3095382428586483,-1.637457556066662
1684115939883873500,14.89287353515625,0.6701455786973237,0.5714516879722475,2.94460208453238
1684115939904001800,14.913001708984375,0.890555339294672,-0.4734668222993612,4.828790860280394
1684115939924130600,14.933130615234376,0.6573854658454656,-0.546314324106276,-1.7233524632342159
1684115939944259800,14.953259765625,0.4589747710883617,-0.4528860988244414,-3.7289831142187118
1684115939964388900,14.973388916015624,0.39426352172493934,0.13674538896083832,0.12767974671274424
1684115939984516900,14.993516845703125,-1.4788503177791834,0.3571814530432224,1.771334257723391
1684115940004646000,15.01364599609375,-2.0104478420078755,-1.1442343322873114,-0.8540972477301955
1684115940024775000,15.03377490234375,-0.3557470363259315,-2.771639427025616,-2.6937343495681882
1684115940044903700,15.053903564453124,2.0199626893281937,-2.9422078828722236,-1.9941379277199505
1684115940065032700,15.07403271484375,1.126418689611554,-2.2355006061054765,1.1480085170637815
1684115940085160700,15.09416064453125,-1.8164000186353921,-2.4553759675651787,0.5548655870914458
1684115940105289700,15.114289794921875,-2.4712545046985146,-3.320266411988437,0.1877341101810336
1684115940125419000,15.1344189453125,-0.9276444222390651,-4.171482551324368,0.35382980452775953
1684115940145547800,15.1545478515625,0.5809592287689447,-4.141969748853147,2.7566011401087045
1684115940165675800,15.17467578125,-0.5292109213531017,-3.9300720882743594,3.303628873181343
1684115940185804800,15.1948046875,-1.9709353313088416,-4.803911855089664,1.6457460764624177
1684115940205933800,15.214933837890625,-0.42107612532675265,-6.7899249285429715,-0.6541245643533766
1684115940226062800,15.235062744140626,1.5933645857095717,-7.01624478996694,0.45062224554568525
1684115940246191600,15.255191650390625,0.1316921972244978,-6.829635007640719,1.3115852873921394
1684115940266320000,15.27531982421875,-1.339879653984308,-6.736840404087305,1.3405493699394166
1684115940286448600,15.29544873046875,-1.9582646503061054,-6.564003126525878,-0.11692425168156623
1684115940306577700,15.31557763671875,-0.6414940692305564,-6.284353241452575,-0.770693645921722
1684115940326707000,15.33570703125,0.597667202463746,-5.290245757746696,0.6516126545976847
1684115940346836000,15.3558359375,-0.4735615148454904,-4.65779658023715,0.4507654534086585
1684115940366964000,15.3759638671875,-1.3065145599991081,-4.259453095722198,-0.7042506043296307
1684115940387092700,15.3960927734375,-0.790973267558217,-4.42809262933284,-2.0235469775557515
1684115940407221800,15.4162216796875,1.0822937166810036,-4.2377167724713685,-1.3881100164070725
1684115940427350800,15.436350830078124,1.4136083225399254,-2.459815995839238,0.18038045948259532
1684115940447478800,15.456478759765625,0.2704085939973593,-0.8663504339732229,1.1010841957382858
1684115940467607800,15.47660791015625,-2.281806284075975,-0.95846392339468,-1.0561972985245287
1684115940487736600,15.496736572265625,-1.867251669472456,-0.6930414472468197,-1.185340980309993
1684115940507865900,15.516865966796875,0.9877566533744334,-0.1370078392893076,0.922076339783147
1684115940527995000,15.536994873046876,0.012798106774687767,1.9699363833993673,3.7783372199743983
1684115940548123000,15.557122802734375,-3.7952398394584654,1.895895872415602,2.002964208254218
1684115940568252000,15.577251953125,-3.926410058635473,0.7620680755913257,-1.4704343716114758
1684115940588381000,15.597380859375,-0.12070026308894156,0.015452420675754546,-0.5145191097863018
1684115940608509700,15.617509765625,2.0993056906342504,-0.4039151471674442,0.8953142242595553
1684115940628638700,15.637638671875,0.06605915684103965,-0.7873033468738198,-0.7280399145875126
1684115940648766700,15.6577666015625,-2.460535542285442,-1.8375018433749675,-3.4286671654745935
1684115940668895700,15.677895751953125,-1.769450635933876,-2.1485995906352997,-3.220857650992274
1684115940689024800,15.698024658203124,0.8201993620425462,-0.3316206030681729,-0.8616941325999796
1684115940709153800,15.71815380859375,1.0216425563633442,0.9482096558839083,0.8769161055207252
1684115940729281800,15.73828173828125,-1.659872070840001,1.3627888204067944,-0.24562647330984472
1684115940749410800,15.758410888671875,-3.6529900078624484,0.7046937449872493,-2.0422385262832043
1684115940769539800,15.778539794921874,-0.2234779159963131,1.2960700306132436,-0.42166356982588765
1684115940789668900,15.7986689453125,2.4804905350774527,2.5497896967530247,2.212398255198449
1684115940809798000,15.8187978515625,1.3202367958813905,3.047277738370001,1.8856714155212044
1684115940829926000,15.83892578125,-2.5655162581950424,2.2830665132701395,-1.0415493260994553
1684115940850054700,15.8590546875,-1.096544944873452,2.035033417209983,-1.5053855657443402
1684115940870183700,15.87918359375,2.2225936321288344,2.5950337368413803,1.035339365543425
1684115940890312700,15.899312744140625,1.4382991116821766,2.3902315874814986,1.6653791438236831
1684115940910440700,15.919440673828126,-3.1098405775278803,1.4596175017818809,-2.5371570096731184
1684115940930569700,15.93956982421875,-4.081035972201824,1.3807538084253668,-3.5018256329268214
1684115940950698500,15.959698486328126,-0.33033085551857944,2.3802035299420354,-0.5860926461346447
1684115940970827500,15.97982763671875,0.5784019455015659,1.7854229888305067,1.21625203220658
1684115940990956500,15.99995654296875,-0.537865936973691,1.25112058955729,-0.9772971456151455
1684115941011084500,16.02008447265625,-1.2483218987494706,0.8155608885869383,-2.793452322643995
1684115941031213600,16.040213623046874,1.5088590870738028,1.6088368801295756,-1.073434118399024
1684115941051342800,16.0603427734375,3.7542782989948984,1.9961504365861416,0.24537227935306727
1684115941071471600,16.0804716796875,3.52182154225111,2.2229911070138213,0.1702884698614478
1684115941091599600,16.100599609375,2.5708839227080342,2.399732698537409,-0.467684220309928
1684115941111728600,16.120728759765626,3.6157641467958688,2.637720493662357,0.017482538263872263
1684115941131857700,16.140857666015624,4.042757971733808,2.794792046815157,1.1049306420333682
1684115941151986700,16.160986572265625,1.4937193856090307,2.813216176778078,0.6595777151927351
1684115941172115500,16.181115478515625,-1.5726538061141966,3.3030046038031577,0.22188041767179964
1684115941192243500,16.201243408203126,-2.4931179614603516,3.537859069338441,-0.40143429013714194
1684115941212372500,16.22137255859375,-0.1216921967357397,3.700069154423475,0.312450038652122
1684115941232501500,16.24150146484375,1.9296306764960287,3.33677477145791,1.4035411020338535
1684115941252630800,16.261630859375,1.262957742345333,2.68476018499583,1.1619294903885573
1684115941272758800,16.2817587890625,-0.6254565421432257,3.3442993217438457,0.5084762859581038
1684115941292887800,16.3018876953125,-1.8906483271509409,5.520602327340841,0.7862422935135662
1684115941313016600,16.3220166015625,-2.4244822321295736,6.283555369073152,2.3894610415004194
1684115941333145600,16.3421455078125,-1.7682950361579655,6.528788605281711,0.5687305193800479
1684115941353274600,16.362274658203123,-3.091370854857564,6.194848327094316,-1.8122379305198788
1684115941373402600,16.382402587890624,-4.927083476728201,6.221577344065905,-3.1177947514027355
1684115941393531600,16.40253173828125,-3.328593803089857,4.983578101888298,-2.2511583400949835
1684115941413660400,16.422660400390626,1.3150181844502686,3.95343951985836,-1.0346991679437458
1684115941433789700,16.442789794921875,3.45385976665914,3.2473399997264143,-0.6083833883978426
1684115941453918700,16.462918701171876,0.6144733758360147,2.0748627387732266,-0.8375929799139499
1684115941474046700,16.483046630859373,-1.413366914999485,1.2030433718696236,-2.114115575622767
1684115941494175700,16.50317578125,0.5194850616306066,0.30337445953190323,-1.6420175574585794
1684115941514304500,16.523304443359375,2.4809172360569236,-0.1394403271332383,0.07072203408554197
1684115941534433500,16.54343359375,1.413859082430601,-1.1532944215774537,0.22477716202661394
1684115941554561500,16.5635615234375,-0.6329068581491708,-3.16483999569416,-1.2127834062479437
1684115941574690600,16.583690673828126,2.2586837671637534,-2.577510939632356,-1.525904183768481
1684115941594819600,16.603819580078124,5.485125355768203,-1.6942752757012842,2.5432594182014463
1684115941614948600,16.623948486328125,2.3391063804000614,-2.2144000965401527,2.158741776073724
1684115941635077600,16.64407763671875,-2.776924966213107,-3.285612739497423,-0.7457885564416646
1684115941655205600,16.66420556640625,-2.300550147512555,-2.554179456144571,-1.8726850926980376
1684115941675334700,16.684334716796876,-0.4460357945382595,-0.9982707408651709,0.10359715259671211
1684115941695463700,16.704463623046873,0.880090643903613,0.796853557768464,2.1106949535243213
1684115941715592700,16.7245927734375,0.0009627075523138045,1.272497431845963,2.8282717070907353
1684115941735720700,16.744720703125,-0.47015316770672794,0.9041010495662689,1.3645089221976696
1684115941755849500,16.764849365234376,0.10255670363306998,1.2105521400645374,-0.16289368343502283
1684115941775978500,16.784978515625,0.35847792259454725,1.3133283316671847,-1.6194811698712408
1684115941796107500,16.805107421875,-0.007843699237704277,1.0041896095201372,-0.4409175747416913
1684115941816236800,16.82523681640625,-0.3188438313424587,0.389954134093225,0.5742286053396761
1684115941836364500,16.845364501953124,0.3182125477015972,-1.3682029544100165,-1.591085680992156
1684115941856493800,16.865493896484374,0.14751345121264456,-3.236764829698205,-4.230660716480016
1684115941876622600,16.88562255859375,0.7893781073212623,-3.788110718230903,-3.2046707785621282
1684115941896751900,16.905751953125,1.2992623969137669,-3.7226217624932527,0.06262684430480003
1684115941916880000,16.9258798828125,0.6625526393502951,-4.356096775919199,2.193299733105302
1684115941937009000,16.9460087890625,0.4651882387757301,-5.874384785595536,1.5749066996075212
1684115941957138000,16.966137939453127,0.4024824840158224,-6.221716460275649,1.24284449025169
1684115941977266700,16.9862666015625,0.02899754642546177,-5.206504229220748,1.4542312786988913
1684115941997396000,17.00639599609375,-2.0212141506940124,-4.956725166276097,1.8225382291294634
1684115942017523700,17.026523681640626,-2.281538573050499,-6.598069062256813,0.3377145360291004
1684115942037653000,17.046653076171875,-0.6331488502115011,-7.601521881935,-1.4568985982120035
1684115942057782000,17.066781982421876,-0.8255424766361713,-6.29183979781568,-1.5351410909302532
1684115942077910800,17.086910888671873,-0.029102760365605353,-5.097012757888436,-0.07166749824211001
1684115942098039800,17.107039794921874,2.2459230697900057,-4.093249557086825,1.4382130408339202
1684115942118167800,17.127167724609375,3.4094553922653197,-3.845833131620288,1.7759557800441979
1684115942138296800,17.147296875,2.5656863540649413,-3.6344822912693022,1.4485549866281449
1684115942158425900,17.16742578125,0.9861223301708698,-1.5529109947681425,1.371275493723154
1684115942178555000,17.187554931640626,0.03372574399113655,-0.4685411294002086,0.429303855445981
1684115942198683000,17.207682861328124,-3.104244949477911,-0.7032788366880267,-0.07561550521552562
1684115942218812000,17.22781201171875,-4.429437321940064,0.2750512321714312,-0.49544071716573085
1684115942238941000,17.24794091796875,-2.9332296266466376,0.46098070408329367,-0.9147487003087997
1684115942259070000,17.268070068359375,-1.241474809333682,0.766564217966795,-0.4793989888273179
1684115942279198000,17.288197998046876,0.27821254574656484,0.21021803692877292,-1.4170757063895463
1684115942299327000,17.308326904296877,-0.09255553410053252,-0.28863471717014905,-1.1911710747029631
1684115942319455700,17.328455810546874,0.42033495157063006,0.4423343096718192,-0.3364917893011123
1684115942339584800,17.348584716796875,-1.1214718808591364,0.8957498391978442,-0.3952420844335109
1684115942359713800,17.3687138671875,-1.7118518489241599,1.126350008289516,-1.0015393872722982
1684115942379841800,17.388841796875,-1.1027122353315353,0.5846130751013755,-2.0304377599827945
1684115942399970800,17.408970703125,1.1084142463654278,0.034547581768035886,-1.3149931961394845
1684115942420100000,17.42910009765625,1.2868103270977735,-0.6316629955679178,-1.3832967709064483
1684115942440228900,17.449228759765624,-0.6120476099938154,-0.0819847479864955,0.025145620237663386
1684115942460356900,17.46935693359375,-0.07633622070550918,0.8035121388748288,0.47256468582786615
1684115942480486000,17.48948583984375,-0.3017851445138454,0.009262918385863303,-1.0393146989151836
1684115942500615000,17.509614990234375,1.48083360055089,-1.7419541417211293,-1.726166643872112
1684115942520744000,17.529743896484376,2.6218074697375298,-1.4585153857588766,-0.6597629355665295
1684115942540872700,17.549872802734374,-0.8052139743566512,0.33355449374020096,2.690205883181095
1684115942561000700,17.570000732421875,-5.4473553048223256,0.35428134768754244,1.1645166573375463
1684115942581129700,17.590129638671876,-5.7236745841681955,-2.3250404456466436,-2.749562912034988
1684115942601258800,17.6102587890625,-0.10329612382352352,-3.5928681321159,-3.4754508362203835
1684115942621388000,17.630387939453126,2.7105016522347927,-2.477080726633966,-1.6744544306829572
1684115942641516000,17.65051611328125,0.6372364117860794,-0.6310729207202792,0.8938093726545572
1684115942661645000,17.67064501953125,-2.7401380810856817,-0.2882750900775194,-0.803246765936911
1684115942681773800,17.69077392578125,-5.059956408169866,-1.1143249317139385,-3.8387893505886197
1684115942701902800,17.71090283203125,-0.8750053034633397,-0.8315057689547538,-2.1651249012395737
1684115942722031900,17.731031982421875,1.695754700604081,0.8555683431960642,-0.19070223927162586
1684115942742160000,17.751159912109376,-1.18054892372787,2.079531753497571,1.2578981208682058
1684115942762289000,17.771288818359373,-2.9936890637844797,2.39056958726421,-0.4483079041887074
1684115942782417700,17.791417724609374,0.6608633710891008,2.7800772927641866,-1.184303380890563
1684115942802547000,17.811546875,4.8733361044496295,3.187515353360772,-0.44589441330619156
1684115942822675000,17.831675048828124,5.51743421869874,3.7354607858002185,0.01601122360229492
1684115942842804000,17.851803955078125,2.28138776640296,5.1918999498069285,-1.3310023739151655
1684115942862933000,17.87193310546875,1.7739800960570573,5.988939970058202,0.052383828840404746
1684115942883061800,17.892061767578124,2.972163460674882,5.4042754570305345,0.5884888936214149
1684115942903190800,17.912190673828125,2.891031822386384,4.641978833380342,2.6020886237889527
1684115942923318800,17.93231884765625,-0.35731589307785033,4.782521861058473,0.26346242812126874
1684115942943447800,17.95244775390625,-2.0575819336265324,5.759613912555575,0.7721651067137718
1684115942963576800,17.972576904296876,-0.9856430222213268,8.11286922981739,4.524442002758383
1684115942983705900,17.992705810546877,0.3393973745495081,5.937836974808573,4.206635113248229
1684115943003833900,18.012833740234374,2.4532038842231034,2.767822206825018,0.9522546934910118
1684115943023962600,18.032962646484375,2.8970506442844868,0.8903514872856437,-1.1375601152203976
1684115943044091600,18.053091552734376,1.5822084009230135,2.2360361742869017,-1.245696810942888
1684115943064221000,18.073220947265625,-0.34858722769916056,4.46798566378206,-0.7972191031452268
1684115943084350000,18.093349853515626,-2.7532518296808,6.218132172048091,-0.6304115342020988
1684115943104478000,18.11347802734375,-5.44891305565834,5.767291607576609,-2.922455134654045
1684115943124606700,18.133606689453124,-3.2404689449131485,4.5053328131407495,-3.0446359916895624
1684115943144735700,18.15373583984375,0.38116029452383515,5.102127908945083,-2.393623275746405
1684115943164864800,18.17386474609375,0.2829763991475105,5.270467875087261,-1.3654348048709333
1684115943184992800,18.19399267578125,-2.097540434527397,4.411496007058024,-3.1214038818106054
1684115943205121800,18.214121826171876,-2.356532146975398,1.4268199785515665,-2.5461554319038986
1684115943225250800,18.234250732421874,0.21674247026145457,1.1100845176652072,-0.9811809282459318
1684115943245379600,18.254379638671875,1.5962912868112324,0.9742170805826783,1.2134496150717138
1684115943265508900,18.2745087890625,0.07048106493651866,0.6682499742090702,-1.3206748950377105
1684115943285636900,18.294636962890625,-1.9277210434824228,-1.4648668006122112,-3.684988489669561
1684115943305766000,18.314765869140626,-0.4373953919649124,-2.7589795596778393,-3.5539801830559967
1684115943325895000,18.33489501953125,2.053199773019552,-2.314134143967926,2.228313178819418
1684115943346023700,18.355023681640624,2.727614115077257,-0.5825245783895254,5.985619885724782
1684115943366152000,18.37515185546875,-0.6805547445088624,-0.13080810786634683,0.7120403083577752
1684115943386280700,18.39528076171875,-1.790609159296751,-0.33454934999644753,-3.5830414423674344
1684115943406409700,18.41540966796875,1.3907681297004222,-0.3291030672892928,-2.8637711827561256
1684115943426538800,18.435538818359376,5.07445605816543,0.8083978650897741,1.7755147582784294
1684115943446666800,18.455666748046873,3.347603623986244,2.2136691519170997,3.9616409464925524
1684115943466795800,18.475795654296874,-1.0117173746764658,2.1126661074668167,3.222088361831009
1684115943486924800,18.4959248046875,-2.0487726042270658,0.38882980623841285,1.6269069359578192
1684115943507053800,18.5160537109375,-0.8516098148286342,-1.396046362364292,2.8614015310153365
1684115943527182800,18.536182861328125,-0.8583493522167205,-2.118920783947408,3.4933658476173877
1684115943547310800,18.556310791015626,-2.6463123809188605,-3.401843455956876,0.57230508993119
1684115943567440000,18.57643994140625,-1.341885148587823,-4.603563762529194,-2.190140830682963
1684115943587568600,18.596568603515625,0.8117740635246038,-4.912942723172903,-1.12138851342462
1684115943607697700,18.61669775390625,-0.17845862457454204,-5.237226699742674,-0.5939435788307339
1684115943627825700,18.63682568359375,-2.594571672287583,-4.43800582832098,-1.2405007036045193
1684115943647954700,18.65695458984375,-2.947830398929119,-3.7959167158067224,-0.8991030951485037
1684115943668084000,18.677083984375,-1.194500876712799,-3.0852520797163248,0.12774126764163374
1684115943688213000,18.697212890625,0.4531757294207811,-2.5952374427199363,0.9936262760601937
1684115943708341800,18.717341796875,1.6805688219100237,-2.79288358284533,0.41692309730052945
1684115943728469800,18.7374697265625,3.05913213455379,-3.4364515357404946,-0.48915349012240766
1684115943748598800,18.757598876953125,3.7763358170241115,-3.451622509126365,1.0008457059197127
1684115943768727800,18.777727783203126,2.148465150600672,-4.136715189325809,1.8475883531033992
1684115943788856800,18.79785693359375,-0.5001391406476497,-6.102088794854283,-0.17034867561608552
1684115943808984800,18.81798486328125,-0.7110024897426367,-7.898707423698902,-2.2389517694726586
1684115943829113600,18.838113525390625,-0.1760673455238342,-8.870217875671386,-2.407870120024681
1684115943849242600,18.85824267578125,-0.994404420825839,-7.909270903289317,0.5903979421131312
1684115943869372000,18.878371826171875,-1.9003858773112297,-6.280151698109507,2.4863424759760497
1684115943889500000,18.8985,-3.4824200907111167,-4.884561262819171,1.3348705936506389
1684115943909628400,18.91862841796875,-2.685628492262959,-4.0978877382814884,0.6066432667322457
1684115943929757700,18.9387578125,-0.2792074020028114,-3.613429274107516,0.8057437703844159
1684115943949886500,18.958886474609375,1.3484633579343557,-2.830483830182254,1.5979837699428199
1684115943970015500,18.979015380859376,1.7966805881649255,-1.6673311546742915,2.014443049123883
1684115943990143500,18.9991435546875,1.2119780812144278,-1.17838560821414,-0.013598901763558387
1684115944010272500,19.0192724609375,-0.8841326127707958,-1.9748720862358808,-1.7032471021860838
1684115944030401500,19.039401611328124,-1.8408558299779891,-0.4948115158841014,-0.18462715714164077
1684115944050530600,19.059530517578125,-0.09396481637656688,1.0585182888180016,2.7338533017277715
1684115944070658600,19.079658447265626,1.2178373286366462,0.7340697693362832,1.1964786065265536
1684115944090787300,19.099787353515627,1.4603963771998882,-1.438344704389572,-1.7946381225518881
1684115944110916600,19.11991650390625,0.033708208334445953,-2.1425854449123145,-3.265241567119956
1684115944131045600,19.140045654296873,-2.8616619355171915,-0.04667845680564642,-0.07796221447214484
1684115944151173600,19.160173583984374,-4.283627167513966,2.0232792665302752,2.2517267876327036
1684115944171302700,19.180302734375,-4.722853866559267,0.7489549115180969,0.15777575589939952
1684115944191431400,19.200431396484376,-2.436870589059591,-0.029317864421010014,-1.1425303048484026
1684115944211560400,19.220560546875,1.6163199293613433,0.06367869144529104,-0.9563077682740986
1684115944231689500,19.240689453125,2.1687737791359423,2.2137027619257568,2.029039437492192
1684115944251817500,19.2608173828125,-1.405942317956686,2.3916440846279263,1.088336650107056
1684115944271946500,19.280946533203124,-5.354975127288699,1.3686056899920105,-0.10969561560228466
1684115944292075500,19.301075439453125,-2.5818875472813843,1.3749053746581077,-2.033193926823139
1684115944312204500,19.32120458984375,2.2816402798593045,2.0249106671243906,-1.3764752543233334
1684115944332332500,19.34133251953125,3.407986488756537,2.9256691282644867,1.4792244117885827
1684115944352461600,19.361461669921876,0.43470483770668505,3.2887671118751167,0.34809980950839814
1684115944372590600,19.381590576171874,-3.701163963922858,2.3450988988131285,-1.5084018448255956
1684115944392719600,19.4017197265625,-1.0932377200216055,3.076213617736101,-0.7369305655948817
1684115944412847600,19.42184765625,2.241491224822402,3.4581633090719577,1.31488491345942
1684115944432976400,19.441976318359377,2.4721330410987137,3.152352270042896,1.8716615948691964
1684115944453105400,19.46210546875,-0.5539326901555061,2.435841246011853,-1.6416946091145277
1684115944473234400,19.482234375,-2.014398040938377,1.6962556358635426,-1.4660153861254452
1684115944493363500,19.502363525390624,1.2101958739727734,2.3754876073360442,0.24636910837069154
1684115944513491500,19.522491455078125,2.7876614642828703,1.950026106531918,0.2715546952925622
1684115944533620500,19.542620361328126,3.36741716248095,1.3479562851950526,-1.2861335968799887
1684115944553749500,19.56274951171875,2.2686153785914183,0.9326905997127294,-2.546540924090147
1684115944573878500,19.58287841796875,0.48904257709383964,0.7160463291287422,-1.1464215401332825
1684115944594006500,19.603006591796873,0.7724421700894832,1.789508504578471,-0.21471827095746993
1684115944614135600,19.623135498046874,0.5952677401065826,2.3895921205341812,0.39958807774856686
1684115944634264600,19.6432646484375,1.3115981468737126,2.3169202675551173,-0.425046928653866
1684115944654393300,19.663393310546876,1.275332070749998,1.7515671887189148,-2.2596092114455995
1684115944674521300,19.683521240234374,0.1341056881070137,1.633890657365322,-1.3698404924839733
1684115944694650400,19.703650390625,-1.3445043911755084,2.895116169090569,-0.26514088272750375
1684115944714779600,19.723779541015624,-3.3601632458299395,2.8110882248386737,1.1070943959385156
1684115944734908700,19.74390869140625,-3.2560178117007017,3.0539728520944713,1.4271239299342036
1684115944755037400,19.764037353515626,-1.4026035289227963,2.7622560971304773,-0.4341013188555836
1684115944775165400,19.78416552734375,1.062646766924858,2.3594950884342194,-1.0777771160393952
1684115944795294500,19.80429443359375,2.2802169690579173,2.5843755647048354,-0.8682283566743135
1684115944815423500,19.824423583984377,1.3454010477542877,2.085477656289935,0.6651894175946712
1684115944835552500,19.844552490234374,-0.6768599816441535,2.040970990565419,1.227761341279745
1684115944855680500,19.864680419921875,-3.2936960927098986,4.204859043486416,-1.2906776700504123
1684115944875809500,19.8848095703125,-4.578506185901165,6.354770593503117,-3.6933226027727124
1684115944895938800,19.904938720703125,-2.367856089544296,6.120402450180054,-2.6397075758263466
1684115944916067800,19.92506787109375,-0.6146937405884265,4.568968542227148,-0.8829983480438589
1684115944936195800,19.94519580078125,-1.6057734009057283,3.8387221305713055,-1.8326035499393938
1684115944956324900,19.965324951171876,-1.7924281914174556,2.8210227588757872,-4.025043451344967
1684115944976454000,19.985453857421874,0.23574819950461387,1.9759856004357337,-2.578122934050858
1684115944996582700,20.005582763671875,0.508870728635788,1.217828268547356,0.508114503441006
1684115945016711700,20.025711669921876,-1.567341671180725,1.1490654057055711,-0.2545731653533876
1684115945036839700,20.045839599609376,-2.9913328560471535,0.48302550876140593,-2.5699720685601233
1684115945056968700,20.06596875,0.4902051911324262,-0.37629414979219433,-1.048833784019202
1684115945077098000,20.086097900390627,3.489422078427672,-0.3239472919613123,1.7898793837174771
1684115945097226800,20.106226806640624,1.303363402491808,-0.13182955986857414,0.37527678944319487
1684115945117354800,20.126354736328125,-1.843756227594614,0.23592823224663734,-3.219458890110254
1684115945137483800,20.14648388671875,-0.44955520083606243,-0.3436521093845367,-1.798166150547564
1684115945157612800,20.16661279296875,2.67292624707818,-0.5012251823186874,3.0182670402020215
1684115945177741800,20.186741943359376,1.299867961591482,-0.3414128060251474,4.1342566902577875
1684115945197869800,20.206869873046877,-1.5531570784837008,-0.6835860750287771,-0.08357172491699456
1684115945217998800,20.226998779296874,-1.4556716867655515,-0.6549328119963407,-4.104341736726463
1684115945238127600,20.247127685546875,2.02780229691267,-2.1219635126441716,-3.1551866166859863
1684115945258256600,20.267256591796876,4.161865997195243,-1.359602591586113,3.0040578975856302
1684115945278384600,20.287384521484373,0.7244564300775528,-0.7291290980637073,4.812269349068403
1684115945298514000,20.307513916015626,-3.1293431503772733,-0.8750877210497856,1.7305309765614567
1684115945318643000,20.327642822265624,-1.7300088523834942,-1.7502964381307362,-1.606266152858734
1684115945338771700,20.347771728515625,2.4466549009710548,-2.068787218251824,-1.8446050995089112
1684115945358899700,20.367899658203125,4.203179419836402,-1.3526064490884542,0.6548838582880795
1684115945379028700,20.38802880859375,2.5732518208831547,-0.3030617403209209,1.7892599366448818
1684115945399157800,20.40815771484375,0.09264671951532363,-0.8789376744762063,0.6976629695676266
1684115945419286800,20.428286865234377,-1.306694008219242,-1.569503233128786,-1.5829434371992945
1684115945439414800,20.448414794921874,-1.1690028628408908,-1.261350307148695,-0.5854995025470853
1684115945459543800,20.468543701171875,-1.4813397965073585,-0.8516410867497325,1.2974831122815609
1684115945479672800,20.4886728515625,-1.1196481725633143,-1.8359855935931204,0.8816621310040355
1684115945499801900,20.5088017578125,1.2265800225406884,-2.7782354642897844,-0.32204058155715465
1684115945519931000,20.528930908203126,3.841804606756568,-3.286077434399724,-0.6012541210398078
1684115945540059000,20.549058837890627,4.6790801912844175,-3.399695630273223,1.6989865221321583
1684115945560188000,20.56918798828125,2.4355834718585014,-3.137321874171495,3.4074978284567594
1684115945580316700,20.589316650390625,1.1569628809571266,-3.8464649997830387,1.7685136473447083
1684115945600445700,20.60944580078125,2.26702664809525,-4.852098086109757,0.4476698254808783
1684115945620573700,20.62957373046875,3.67430401404798,-6.212237853312492,0.971786492434889
1684115945640702700,20.64970263671875,2.5649551171809435,-6.459151589953899,2.288108891351521
1684115945660831700,20.669831787109374,-0.8895195665061474,-6.2059437216043465,2.051898773423582
1684115945680960800,20.689960693359374,-3.710798053708672,-5.40564557633996,0.328710122448951
1684115945701089000,20.710089111328124,-3.962440572437644,-5.04426374899745,-0.7228776364535093
1684115945721217800,20.7302177734375,-0.03130173171460628,-4.37630223634094,0.19263576461747287
1684115945741346800,20.750346923828126,3.10575710760653,-3.193462279066443,1.8520235590718686
1684115945761475800,20.770475830078126,3.1008687510430812,-1.4291642035901546,1.7156727223865686
1684115945781604900,20.79060498046875,1.1563064628750086,-0.5793947559311986,1.074635018621385
1684115945801732900,20.81073291015625,0.5249672924339771,-0.28709727846980093,-0.26853037903532384
1684115945821861600,20.830861572265626,-0.13635259025096894,0.0015121581286191938,0.35818887652009723
1684115945841990700,20.85099072265625,-0.7680313679099082,1.0978817464351653,2.1905469272658227
1684115945862119700,20.87111962890625,-3.7175001816958186,0.7763406388327478,1.6046515572689473
1684115945882247700,20.89124755859375,-4.227542876720428,0.6213923614442348,-0.9246825036935508
1684115945902377500,20.91137744140625,-0.8686573957413435,-0.30720629277974365,-1.6368119516395032
1684115945922506200,20.93150634765625,0.5981640460699796,-0.7191536474943161,0.08925137798860669
1684115945942635300,20.95163525390625,-1.6233417908221481,0.11770049675107001,0.41656858477443454
1684115945962763300,20.97176318359375,-5.009212309360504,1.2598363954544067,-1.0346616124123333
1684115945982892300,20.991892333984374,-3.3115035520792007,1.0139560935139655,-1.5829859611667692
1684115946003021300,21.012021240234375,2.052646230790019,-0.22941022865474223,-0.52020153933689
1684115946023150000,21.032150146484376,4.621143550622463,-0.4981611185729503,1.3424762463487685
1684115946043279000,21.052279052734374,1.8513930060833692,-0.6320274449661374,1.411341546651721
1684115946063407000,21.072406982421874,-1.8898475321620702,-0.7905681938886642,-0.8656624517090619
1684115946083536100,21.0925361328125,-2.329632449612021,-0.675469696329534,-1.9144050503134726
1684115946103665400,21.11266552734375,1.1396633711099624,-0.6562234363287687,-0.5611231861814856
1684115946123794400,21.13279443359375,3.9659196467250584,0.008218670029938221,1.615943058872968
1684115946143922400,21.15292236328125,1.848390901657939,0.47065410296618937,1.24988476415202
1684115946164051200,21.17305126953125,-2.1442688679546116,0.29785832645893096,-0.4096189117670059
1684115946184180200,21.19318017578125,-2.0693109498649833,0.41059477106183767,-1.2345264515005052
1684115946204309200,21.213309326171874,1.545907253485918,0.825393715815246,0.2279977315083146
1684115946224437200,21.233437255859375,3.4962773511499163,0.8707429698437452,1.0326473499804734
1684115946244566300,21.253566162109376,0.28456454512178897,0.22174626989811658,-2.2374944102711973
1684115946264695000,21.273695068359373,-2.26922678848803,-0.7221852702751755,-3.578327273327112
1684115946284824000,21.293823974609374,0.45376668105125423,0.82585256549865,-1.4496287533394991
1684115946304952000,21.3139521484375,1.9570184496372938,1.3134373449996113,0.7502491891123354
1684115946325081300,21.334081298828124,-0.1705605648010969,1.374535372301936,-1.188368657568097
1684115946345210400,21.35421044921875,-3.746582483795285,0.6684548491314053,-3.222642780843377
1684115946365339400,21.37433935546875,-2.4855963337838647,1.5834575242012738,-2.3160399775892495
1684115946385467400,21.39446728515625,-0.40211306618154047,2.2410481572300194,-0.13934388102144002
1684115946405596200,21.41459619140625,-0.28496961879134175,2.3635785583555697,-0.19695202038139104
1684115946425725200,21.43472509765625,-1.579825889700651,2.074440421707928,-2.0465183955594894
1684115946445854200,21.454854248046875,-0.08554010238051414,2.2089497221797703,-1.8342974943757056
1684115946465983200,21.474983154296876,2.1505817043632267,2.891617221058905,-0.15832213773578405
1684115946486111200,21.495111328125,3.2098195396274325,3.3577667060822245,1.373256146146357
1684115946506240300,21.515240234375,2.2380589122861623,3.5594954393461347,2.342921554774046
1684115946526369300,21.535369384765627,1.0926894384890795,3.8393978378757834,2.1745525086678565
1684115946546498300,21.555498291015624,1.0602566569179297,3.552762916220724,1.4375671441458164
1684115946566626300,21.575626220703125,-0.7068506307601928,2.9652687327250837,0.13228709437772632
1684115946586755300,21.59575537109375,-1.709067186641693,3.865452316586673,0.23637407631799578
1684115946606884400,21.61588427734375,-1.0475193404197691,4.79698234808743,0.9972755923479795
1684115946627013000,21.63601318359375,-1.1314695432603359,4.632910853044688,1.8109312318354844
1684115946647141000,21.65614111328125,-1.3492968861490486,3.849401637756824,1.7803874788813292
1684115946667270100,21.676270263671874,-1.80715346686244,4.931414199408889,-0.046291503314673896
1684115946687399200,21.696399169921875,-4.391625769940019,6.7320923327773805,-1.8425896680332718
1684115946707528400,21.716528564453125,-8.369303074476122,7.596810635504126,-2.6909181231036783
1684115946727656400,21.736656494140625,-3.9911820982754227,5.996787760949134,-2.2404659734278916
1684115946747785200,21.75678515625,2.058901199531555,4.209796792149543,-2.022722655560821
1684115946767914200,21.776914306640624,2.3275749325603243,3.6546477119415997,-2.437058366716653
1684115946788043300,21.797043212890625,-1.0533920318454504,4.2634032946527,-4.834241526901722
1684115946808172300,21.81717236328125,-1.180554184424877,1.894793756392598,-3.5725039740011093
1684115946828300300,21.83730029296875,2.3530957427859307,-0.051074353677034376,-0.9041910659372806
1684115946848429300,21.85742919921875,3.6656741328686473,0.17490063983201978,0.69878978164047
1684115946868558000,21.87755810546875,1.883680241703987,0.3548334286123514,-1.0118380784466863
1684115946888687000,21.89768701171875,-0.33003450292050834,-0.5409107114970684,-4.8865255486294625
1684115946908815400,21.9178154296875,0.9979466234773396,-2.5824071872413157,-3.5008374986723063
1684115946928944400,21.9379443359375,3.2669080390274523,-2.190091292452812,-0.3203527746006846
1684115946949073400,21.958073486328125,2.0965438247054813,-0.8162754665970802,1.4048456087611614
1684115946969202200,21.9782021484375,-0.16175298896729945,0.14872458056807517,-0.9288917919516563
1684115946989330200,21.998330078125,-0.5277747510701417,-0.38272096796929833,-3.1562048538178202
1684115947009459200,22.018459228515624,0.9927321036994456,-1.1245289303421973,-1.5474594513639808
1684115947029588200,22.038588134765625,2.1737533211141824,-0.02074906577914953,2.09481247086823
1684115947049717200,22.05871728515625,0.794416101488471,0.845759627495706,2.821897203622758
1684115947069845200,22.07884521484375,-1.0995189922481774,0.20450550450086594,0.34754385612607
1684115947089974500,22.098974609375,-0.8287725445985794,-0.7606985408037901,-1.7160984004527329
1684115947110103300,22.119103271484374,0.6245967104434966,-1.3469392171069978,-0.6433053564362228
1684115947130232300,22.139232421875,1.8028987320274112,-0.6637637687057256,1.7375334026694296
1684115947150360300,22.1593603515625,0.9598585926234722,-0.8218485905542969,2.758799234674871
1684115947170489300,22.1794892578125,-1.4628227275639771,-1.2946569489449262,1.5306883493050931
1684115947190618400,22.199618408203126,-2.5107564940035343,-1.738582911722362,0.6207730605021119
1684115947210747100,22.2197470703125,-1.5860025325089693,-1.744440990100801,2.5384824130579826
1684115947230875100,22.239875244140624,-0.2094827083915472,-2.780181337660551,3.8236628008663653
1684115947251004200,22.260004150390625,0.3852168764382601,-3.942469213032722,4.105831683023274
1684115947271133200,22.28013330078125,0.29500118346214294,-5.092873758387565,2.603381878469884
1684115947291262500,22.300262451171875,0.4388245479851961,-5.6880976593524215,2.286314409150183
1684115947311390500,22.320390380859376,0.8317290563166141,-6.8409905143916605,2.7006632720485326
1684115947331519500,22.34051953125,2.339070140042901,-7.583876335129141,2.0260585219852625
1684115947351648300,22.360648193359374,3.7892216020822524,-7.6758251355081795,1.5072441992230712
1684115947371777300,22.38077734375,3.6293788306504484,-6.797787332481145,1.711134494435042
1684115947391905300,22.4009052734375,3.082548665976524,-5.065848973339795,2.594697344493866
1684115947412034300,22.421034423828125,1.337826228585839,-3.8339872110038993,3.995152170950174
1684115947432163300,22.441163330078126,-0.14331658404469488,-3.125845371389389,3.776597390569746
1684115947452292000,22.4612919921875,-0.5161053560644387,-2.6438956751659513,2.8390304169923066
1684115947472420000,22.481420166015624,-0.1593108565121889,-1.3792358050778508,1.120764390176907
1684115947492549000,22.501549072265625,1.9629455015987156,-0.707376115939021,1.170236715484783
1684115947512678400,22.521678466796875,3.8251059854120015,-1.1723697089254856,0.9312968072667718
1684115947532807400,22.541807373046876,2.210690428367257,-2.310547225391865,-0.44352403091304
1684115947552936200,22.561936279296877,-3.4479397289603946,-1.0984031399607659,-2.99700856359601
1684115947573064400,22.582064453125,-7.586142526495456,0.6914058088690042,-2.7940540879294273
1684115947593193200,22.602193115234375,-4.667776706981659,1.5415139869630337,-1.4601326116971671
1684115947613322200,22.622322265625,0.12939677976369857,0.5741729296296835,0.5332181111678481
1684115947633451300,22.642451171875,0.642116000521183,-0.38729602079987524,1.0789940175484865
1684115947653579300,22.662579345703126,-0.516746576577425,-0.7225579029798507,-0.9235269039176404
1684115947673708300,22.682708251953127,-1.7709908511132,-0.22624738070964812,-0.8110448724672198
1684115947693837300,22.70283740234375,-1.248123745828867,1.1041633109226823,-0.3048189592517912
1684115947713966300,22.72296630859375,-1.9366589676976202,0.5167413158804178,-1.670740524726361
1684115947734094300,22.74309423828125,-2.2169278614521026,-1.388842130073905,-1.8085732705324886
1684115947754223400,22.763223388671875,0.39124212807714936,-1.357713124577701,-1.1429317252561448
1684115947774352400,22.783352294921876,2.4597943685293195,-0.3112617056503892,1.2565940525323152
1684115947794481200,22.803481201171873,2.0173691657036543,0.28764029930531976,1.0202858810573816
1684115947814609400,22.823609375,-1.8615233549535273,-1.1209501950725913,-2.4042899234503508
1684115947834738200,22.84373828125,-3.7483383875519034,-1.5535086684003472,-3.3333062185645104
1684115947854867200,22.8638671875,-1.1849772615641354,0.18375439289510248,0.08270487895458936
1684115947874996200,22.883996337890625,-0.024039047235250473,1.629925553126633,3.168881964561343
1684115947895123500,22.90412353515625,-1.3402484872967004,1.0980769767463208,-0.13289572779536246
1684115947915252500,22.92425244140625,-1.3590841206699609,-0.1461629133865237,-3.127961632890999
1684115947935381500,22.944381591796876,1.170882100716233,0.5729764133214951,-2.0027438435018063
1684115947955510500,22.964510498046874,1.8160399531513451,1.5432716442853212,0.6692484837271273
1684115947975638300,22.98463818359375,-0.3933452378362417,2.0397689212992787,0.3057901423715055
1684115947995767600,23.004767578125,-2.9358173050522804,2.2460613092169166,-2.374359480088949
1684115948015896600,23.024896484375,-2.4305320336878298,1.716247453534603,-2.230008876821399
1684115948036025600,23.045025634765626,0.07024491809308528,1.9548793917819856,-0.02387216623574495
1684115948056153600,23.065153564453126,1.1934949145406484,1.9105229481831192,1.2140795835383236
1684115948076282600,23.08528271484375,0.6564771188288927,1.9225272742316126,-0.44777664685621854
1684115948096411400,23.105411376953125,0.48236733711361884,2.4057781161814926,-1.6203107525631784
1684115948116540400,23.12554052734375,2.398750409501791,3.2281250116467475,-0.32763036438822746
1684115948136668400,23.14566845703125,3.141988696938753,2.8911890587747093,2.3804662725314496
1684115948156797400,23.16579736328125,2.1171593272328377,2.938347992573678,1.3967916277736425
1684115948176926700,23.1859267578125,1.1131360141903162,3.033485652121901,-1.0493380802795291
1684115948197055500,23.206055419921874,1.2667758393287658,2.7515543781131506,-1.5574556524604557
1684115948217184500,23.2261845703125,1.419278769391775,2.0678800402790305,-0.22905308578014372
1684115948237312500,23.2463125,-0.8180687797546387,1.3456769420862198,1.7410206602632998
1684115948257441500,23.266441650390625,-3.525100710052252,1.496963774357736,-0.93250296818614
1684115948277570600,23.286570556640626,-3.438050203108787,2.8978116917848586,-1.156264669559896
1684115948297699300,23.30669921875,-1.5762188051193953,4.571460359042883,2.006088185493648
1684115948317827600,23.32682763671875,0.05750467898547649,3.5297874065637584,2.2803363576538858
1684115948337956400,23.346956298828125,1.2734195151269436,1.175091827365756,0.5741165232673288
1684115948358085400,23.36708544921875,2.066319951355457,-0.25275427936315537,-0.785333508105576
1684115948378214700,23.387214599609376,2.3958465047538278,-0.026027882964909075,-0.817636379686743
1684115948398342700,23.4073427734375,1.6103379323422908,1.6174235066890716,-0.9212189192362129
1684115948418471700,23.4274716796875,-0.834071820050478,4.099155566260219,-1.014332233349979
1684115948438600400,23.447600341796875,-4.304835959759354,6.040768356972932,-1.2916948842689395
1684115948458729500,23.4677294921875,-4.428430190724134,5.642792536726594,0.0055273851193487645
1684115948478857500,23.487857421875,-1.2549223199278114,6.201716459298133,-1.8908647463805972
1684115948498986500,23.507986572265626,-0.28651217205822466,6.020936698299646,-2.3606815217398105
1684115948519115500,23.528115478515623,-1.8863170199483632,6.5946706519901745,-4.338688545000553
1684115948539244300,23.548244384765624,-1.4208090476989745,4.924188339808583,-2.2085211215041576
1684115948559372500,23.56837255859375,1.3579828814297914,3.404641562242806,-0.6783966896921396
1684115948579501300,23.588501220703126,2.3274083438217636,1.810273644709587,1.819396131711453
1684115948599630600,23.608630615234375,-0.2528536480844021,1.5791419990897178,-0.6092227618314325
1684115948619759600,23.628759521484376,-2.013753313294053,1.5706564948171375,-4.353737645572424
1684115948639887600,23.6488876953125,0.10130348870158194,0.6247779122292995,-3.564105855751037
1684115948660016600,23.6690166015625,3.2600223711669445,0.002958557544648647,-0.23826164363026617
1684115948680145400,23.6891455078125,3.8845921936035155,0.7785042466074228,1.6880922031521797
1684115948700274400,23.7092744140625,1.105560610499978,1.4001321703732013,0.16519582289755344
1684115948720402400,23.72940234375,-2.0710943261504173,0.11588263367414474,-2.0940859101593494
1684115948740531500,23.749531494140626,-0.5832628295361996,-1.2485764580324292,-1.6965739080324769
1684115948760660500,23.769660400390624,3.0754782891988754,-0.5818044474214316,1.580728683759272
1684115948780789500,23.78978955078125,2.7865158013790845,-0.023157003703713416,3.9728155437186357
1684115948800917500,23.80991748046875,0.5446230100184679,-0.4829498131766915,0.7533889484427869
1684115948821046500,23.830046630859375,0.20634791749715803,-1.912128922075033,-1.6459546046465634
1684115948841175600,23.850175537109376,0.4454103561162948,-1.9118805002719164,-0.5441252896293998
1684115948861304600,23.8703046875,0.7645183913528919,-0.8467939389795064,2.8551138290479776
1684115948881432600,23.8904326171875,-1.3725275396108627,-0.5306409541562199,2.339925587828457
1684115948901562400,23.910562255859375,-1.8870213688254356,-2.083328223171085,-0.17041589563339948
1684115948921691400,23.93069140625,-0.6493699171721935,-3.4241783296227455,-0.1671716530151665
1684115948941820400,23.9508203125,-0.35624329541027544,-3.486395424082875,2.247688179766387
1684115948961948400,23.970948486328126,-1.9963719703823326,-2.7498358837574717,4.447753607614338
1684115948982077700,23.99107763671875,-3.585858253353834,-3.1450945539996025,4.204573504543304
1684115949002206500,24.01120654296875,-2.425546061968803,-3.5174262299016115,3.15806100307852
1684115949022335500,24.03133544921875,0.08103577669858932,-3.937439109911024,1.6541086850076914
1684115949042463500,24.05146337890625,2.5966525702148675,-4.460442701056599,0.33571590955778957
1684115949062592500,24.071592529296876,3.199651196834445,-5.070302445617318,0.9406447735875845
1684115949082721500,24.091721435546877,1.202277940455079,-6.359438000792265,1.712267443987727
1684115949102850600,24.1118505859375,-0.2876964134067297,-7.533478273278474,1.2291384748518466
1684115949122978600,24.131978515625,-2.295164362820983,-7.608222256356477,0.4796675766356289
1684115949143107300,24.152107421875,-3.828954477533698,-6.664149846407771,1.874896339006722
1684115949163236400,24.172236328125,-4.489979761186242,-6.100728027895093,2.6474416772097347
1684115949183365600,24.19236572265625,-2.174537164968252,-5.324121139341592,1.7633369753591714
1684115949203493600,24.21249365234375,0.06992869175076484,-4.096100562603771,0.8074331117108464
1684115949223622700,24.23262255859375,1.9942051477372644,-3.5035844592928886,-0.08160086323544383
1684115949243751400,24.25275146484375,2.6847522939503192,-2.3157450862959026,0.7747718551460653
1684115949263880400,24.27288037109375,2.842528195980191,-1.1012070184003562,1.4797566189691425
1684115949284008400,24.293008544921875,1.8533780424207449,-0.4303164665546268,1.1785472285166383
1684115949304137500,24.313137451171876,-2.6091239292532205,-1.0182859394118189,-0.7483179287888109
1684115949324266500,24.3332666015625,-3.2864474367558953,-0.026326135259121655,-3.4334064689561723
1684115949344395500,24.3533955078125,-0.9763608146131038,0.552480153259635,-1.0660554793898016
1684115949364523500,24.3735234375,0.5717834041446447,0.821564074524492,1.123635342503339
1684115949384652500,24.393652587890625,0.42872050260007377,-0.38702801751345395,-0.7697188095401972
1684115949404781600,24.413781494140625,-0.2170984440922737,-1.5378165937498212,-2.3803578437209127
1684115949424910600,24.43391064453125,-0.14459960959255694,-0.36069939803630113,-1.8754248929254709
1684115949445038600,24.45403857421875,-0.9572522095173597,0.9592343232452869,-0.12409874642081559
1684115949465167600,24.474167724609377,-1.266098378458619,1.0326678082466125,0.10547434464544057
1684115949485296400,24.49429638671875,-1.9165216040760278,-0.7344160985559225,-3.280789264863729
1684115949505425400,24.51442529296875,-0.45553544428944587,-0.6283493409752845,-2.2588462642490863
1684115949525553400,24.534553466796876,2.720748320960998,1.0435276404350995,0.807489810334146
1684115949545682400,24.554682373046877,4.00273108177185,1.1077449688017367,0.9283362038955092
1684115949565811500,24.5748115234375,0.03980067999064922,-0.6728489924371243,-1.6667878415778279
1684115949585940500,24.5949404296875,-3.1837767513543365,-1.2600079526290298,-1.1920153435073793
1684115949606068700,24.61506884765625,-1.50050919187963,1.0055801870957017,1.0772601064279674
1684115949626197500,24.635197509765625,-0.11409925738871098,1.7311214898005127,1.9491785497918723
1684115949646326500,24.655326416015626,-2.090328603452444,0.8756400942355393,0.6421452266156673
1684115949666455600,24.67545556640625,-2.9967022741258145,0.2615770527660847,-1.287853990931809
1684115949686583600,24.69558349609375,-0.3878144917160272,0.1258770812049508,-0.24144144271016119
1684115949706712600,24.715712646484373,2.809694432392716,0.8882938241034746,1.22853524826169
1684115949726841300,24.73584130859375,0.8290840947657823,1.6608835859701037,0.6733145641222595
1684115949746970400,24.755970458984375,-1.9242875619024038,1.5088278151527046,-0.9514416235424578
1684115949767098400,24.776098388671876,-0.3504033372104168,1.3530460095494985,-0.7981473969712853
1684115949787227400,24.796227294921874,2.777279186478257,1.6330971689000724,0.6588651830092072
1684115949807356700,24.816356689453126,2.050585206606984,1.6825220018044114,-1.084566337788105
1684115949827485400,24.8364853515625,1.2721674692392348,2.5038798862323164,-4.102934208016097
1684115949847613700,24.85661376953125,2.7127660900354384,3.2357641282230616,-3.0259008960813283
1684115949867742500,24.876742431640626,2.559689159476757,2.98310541818887,0.5833522613853216
1684115949887871500,24.89687158203125,-1.2379822910428047,4.034057071144878,-0.015876491306722165
1684115949908000500,24.91700048828125,-3.7847967713773247,3.638257425893843,-1.2674533001989126
1684115949928128500,24.93712841796875,-2.317193239277601,2.2013540063537658,-0.7624784099578857
1684115949948257500,24.957257568359374,-1.4691110140532255,0.8118558965891599,0.9537912554085254
1684115949968386300,24.97738623046875,-3.236385474991798,0.24845672829970716,1.259986909841001
1684115949988515300,24.997515380859376,-3.502930963820219,1.8709528620779514,1.6597633497685194
1684115950008644400,25.017644287109373,-2.2235879038631916,3.7928152426600454,3.686561145813763
1684115950028772400,25.0377724609375,-0.4649140980094671,3.248398568868637,2.9844971648082135
1684115950048901400,25.0579013671875,1.6953835292041302,1.7225177659757434,2.08532348864153
1684115950069030400,25.078030517578124,3.260367239081859,1.608280123029649,0.8762013813801109
1684115950089158400,25.098158447265625,2.809159594863653,1.3506743119820952,0.21877704482898114
1684115950109287400,25.118287353515626,1.4535019415110348,1.5740022981137036,0.6224921393796801
1684115950129416400,25.13841650390625,-1.2127023038357496,1.336463415800035,0.6717739105515181
1684115950149545500,25.15854541015625,-2.8849808517843485,1.3978104494273662,0.5689484729796648
1684115950169673500,25.178673583984374,-3.0517011077702043,2.0675947935968635,0.2437874213144183
1684115950189802500,25.198802490234375,-3.021518150952458,2.734635976538062,-0.538275248426944
1684115950209931300,25.21893115234375,-3.71664034999609,3.501384318900108,-0.7391914962641895
1684115950230060300,25.239060302734377,-4.392099232670665,3.3407167870819565,-0.804007813437283
1684115950250189300,25.259189208984374,-1.9763836598426103,2.6033178733229634,-1.535332667979598
1684115950270317300,25.2793173828125,-0.5445546209573745,2.99676657153368,-2.5135721359461543
1684115950290446600,25.299446533203124,-1.7753560605853795,4.315858289033175,-3.640461950200796
1684115950310575400,25.319575439453125,-4.519312238654494,4.41651091261059,-5.333934677347541
