time,seconds_elapsed,z,y,x
1684115837486837500,0.02783740234375,0.8089365020111202,-0.7577578111767769,-0.8739066215064376
1684115837506966500,0.047966552734375,0.29458704970329996,-0.3165700411915779,-0.2872455278340727
1684115837527095600,0.068095458984375,-0.7482797887355088,-0.1812052929341793,-0.1016764867324382
1684115837547224600,0.088224609375,-1.3870353729128837,0.42257308588624,0.04514759397655725
1684115837567354400,0.108354248046875,-1.6674094806075095,0.5104758257448673,0.6898878055214881
1684115837587483600,0.128483642578125,-1.4042761383101343,0.19007716617584228,-0.21005289122862741
1684115837607612700,0.14861279296875,-0.8533277246624231,0.7428554255992174,-0.44893827451411633
1684115837627741700,0.16874169921875,-0.4204202917665243,0.981591701003909,1.4730056834042071
1684115837647870500,0.188870361328125,-0.6919546749234199,1.2083119599223135,3.419107894490659
1684115837668000500,0.20900048828125,-0.9698363812804222,0.19692191750407217,2.374217441269755
1684115837688129500,0.229129638671875,1.4029717777132986,-0.14963292758464813,0.215346631988883
1684115837708258600,0.249258544921875,1.2504407905995845,0.25761691696345806,-0.0500341969743371
1684115837728387600,0.2693876953125,-0.3594815466791391,0.25059037932753564,1.660049473233521
1684115837748516600,0.2895166015625,-1.6570754258587956,0.6133639532893895,2.3311972147107123
1684115837768645600,0.309645751953125,-1.4759703784286975,0.7489549115180969,1.1508905022408813
1684115837788775400,0.329775390625,2.193806221322715,0.7169973462432623,0.03268836376741528
1684115837808904700,0.34990478515625,2.5850088941723106,-0.1708311984360218,-0.1404663091801107
1684115837829033700,0.37003369140625,0.34546617306917904,0.12950959248840807,0.3140517747603357
1684115837849162500,0.39016259765625,-0.01459784967303276,-0.15265139862298965,-0.24534604893326759
1684115837869291500,0.41029150390625,0.7474336933001875,-0.060602060478925704,-0.8456712185598909
1684115837889421800,0.430421875,1.1964338906019925,-0.19684826774597167,-0.8348375437259674
1684115837909550600,0.450550537109375,0.854377818237245,-0.14898235472142696,-0.6449335421599447
1684115837929679600,0.4706796875,1.0905918816879392,-0.08706511999070644,-0.4214776918649673
1684115837949808600,0.49080859375,1.3574533045977353,-0.3705798637986183,-1.2268857274889946
1684115837969937700,0.510937744140625,1.9715823970407247,-0.6760065796852112,-1.7047545841395855
1684115837990066400,0.53106640625,1.9381632347807287,-0.6036620589643716,-1.2096680507063864
1684115838010196700,0.55119677734375,1.3154402092546225,-0.6488520307779312,-1.0029100911036133
1684115838030325800,0.57132568359375,0.49304479847252364,-0.47077159186601636,-1.0176759908199309
1684115838050454500,0.59145458984375,-0.35215251896530386,-0.52153030372262,-0.919259455731511
1684115838070583600,0.61158349609375,-1.1810218019366263,-0.3656085051268339,-0.6982336090624331
1684115838090712600,0.631712646484375,-1.2474229040831326,-1.018832175117731,-1.6024302279576659
1684115838110841600,0.651841552734375,-0.789518684835732,-1.1708423532277346,-1.634405328889191
1684115838130971600,0.6719716796875,-0.5983429097682237,-0.8774772465348243,-0.6958084277421236
1684115838151100700,0.6921005859375,-1.579395097067952,-0.793524705606699,-0.7289400052323937
1684115838171229700,0.712229736328125,-1.0093962382525206,-1.2891641967475413,-0.9751318573400377
1684115838191358500,0.7323583984375,1.41901778036803,-1.5006395402610302,-0.6891220818459988
1684115838211487500,0.752487548828125,1.4071332813069224,-1.2115198160529137,-0.8056050195008516
1684115838231617800,0.77261767578125,-0.09293079715371132,-0.7845137161552905,-0.4015758905649185
1684115838251746600,0.79274658203125,-0.33629180974960327,0.11227028839588164,0.6050140580952167
1684115838271875600,0.81287548828125,0.35001492241472004,0.5106675489246845,0.6030082712307572
1684115838292004600,0.833004638671875,2.918484477457404,0.3081599402427673,0.19453794497698546
1684115838312133600,0.853133544921875,3.919863413470983,1.194818272098899,0.3171390732511878
1684115838332262400,0.873262451171875,2.6903672112226484,2.0928782879352568,2.169347195109725
1684115838352392700,0.893392822265625,2.9272315552756187,2.4219985986202954,3.171685039283335
1684115838372521700,0.913521728515625,4.556435223868489,1.3366244515806436,2.0967539603248238
1684115838392650500,0.933650390625,4.857696344508231,0.6221650993824005,2.1602058572769165
1684115838412779500,0.953779541015625,3.1509152229771016,1.1004968973696232,4.593902784736454
1684115838432908500,0.973908447265625,0.3498500872418284,-0.38634909533858297,4.578726842914522
1684115838453038600,0.99403857421875,-1.9555811103105545,-2.095380041623115,-0.8349868890687823
1684115838473167600,1.014167724609375,-2.0094670142769813,-2.479297525900602,-2.7909493999123574
1684115838493296600,1.034296630859375,1.0919640468239784,-1.5166028330683707,-1.7583394593328237
1684115838513425700,1.05442578125,0.2613257083535194,0.15157821643352506,0.3440542604446411
1684115838533554400,1.074554443359375,-4.387358175623417,0.9247066152215003,-0.028077508971095084
1684115838553683500,1.094683349609375,-6.23663579698801,0.9462298802435397,-2.7995246282950044
1684115838573813800,1.114813720703125,-1.973217012505233,1.3201765901267528,-1.7740657285138963
1684115838593942500,1.134942626953125,3.321144656127691,1.8764134655714033,1.3398454594537614
1684115838614071600,1.155071533203125,2.258124964237213,2.308724101617932,3.2391055476054547
1684115838634200600,1.17520068359375,-2.6191338666141033,2.133333632442355,0.9936398661941289
1684115838654329600,1.19532958984375,-6.798515646755695,1.4403992988318204,-0.9594646248698234
1684115838674458600,1.215458740234375,-4.867440032148361,0.6787246064722537,-1.0236433747917413
1684115838694588700,1.235588623046875,-0.06194777599945664,0.16199731911718845,0.4572065923720598
1684115838714717700,1.2557177734375,3.2519781809210775,0.06876900032162665,1.3321274324223398
1684115838734846500,1.275846435546875,3.2087375896096226,0.24451485880613325,0.11542992147058248
1684115838754975500,1.2959755859375,0.8752665847480297,0.10359422998726367,-1.0692784600242973
1684115838775104500,1.3161044921875,-0.6475486200291664,-0.552149898391962,-2.372254324503243
1684115838795234300,1.336234375,-0.08314478647550567,-0.5368576367139816,-1.0879393213525415
1684115838815364400,1.3563642578125,0.9118857120931148,-0.2853758615046739,0.31940994079262014
1684115838835493400,1.376493408203125,0.07835694941077381,0.06686462800502777,0.21920184611231086
1684115838855622400,1.396622314453125,-1.4704139133453369,-0.3001344546973705,-0.21523235795944928
1684115838875751200,1.416751220703125,-1.4000094207763671,-0.7841933981597423,-1.4043386821523307
1684115838895880200,1.436880126953125,-0.5311971267342567,-0.8531178813040255,-0.4300836076468229
1684115838916009200,1.45700927734375,0.34019941164739426,-0.5832382796168327,0.9478411148324608
1684115838936139300,1.47713916015625,0.39623336049318314,-0.2831114237040281,0.5229027611196041
1684115838956268300,1.497268310546875,-0.6250993262033909,0.07953998518288136,0.33258564870804547
1684115838976397300,1.517397216796875,-2.329005842146277,0.204938050699234,0.09096621908247471
1684115838996526300,1.5375263671875,-1.4782318936198948,-0.4198135580450296,0.3429159040644765
1684115839016655000,1.557655029296875,1.2594471038758754,0.06714402946829795,0.8627809049233793
1684115839036785400,1.577785400390625,2.18895731998682,0.8109650852292776,1.520074893093109
1684115839056914400,1.59791455078125,0.7390946117609739,0.687282591459155,0.4711451013535261
1684115839077043200,1.618043212890625,-0.2305800030864775,0.20936229688227176,-0.658330345480144
1684115839097172200,1.638172119140625,0.7079647294819355,0.5099725523978471,-0.3468079430669546
1684115839117301200,1.65830126953125,1.467522868078947,1.0462859992325306,0.16654139228761194
1684115839137430300,1.67843017578125,0.8934664044357836,1.1100263577371836,0.032520752115547655
1684115839157560300,1.698560302734375,-0.5870457090757787,0.7093190667003393,-0.38423955583870406
1684115839177689300,1.718689453125,-1.0410017752192915,0.4311772481024265,-0.8000275116294622
1684115839197818400,1.738818359375,-0.01298033147379756,0.9509884729474782,-0.09991057303845882
1684115839217947100,1.758947021484375,1.4029127410024405,2.014932293945551,0.3309422654151916
1684115839238076200,1.779076171875,1.2515034513950347,3.0728970405340195,0.5886515368372202
1684115839258205200,1.799205078125,-0.12914894248247147,2.8492589655399323,-0.3567021450936794
1684115839278335200,1.819335205078125,-0.4026613477140665,1.6976280932605265,-1.6920771811351178
1684115839298464300,1.83946435546875,-0.8753671225130557,0.8784633349627256,-1.2768868989765643
1684115839318593300,1.85959326171875,-3.6976769985899325,0.07212883214354515,-0.6845341695338487
1684115839338722300,1.879722412109375,-7.251405544972419,0.6514017152607441,1.4199322648644446
1684115839358851000,1.89985107421875,-10.132696310067177,0.9984966585755347,2.455325406421721
1684115839378981400,1.9199814453125,-8.14886233421862,0.6068219843000173,1.1932605212628842
1684115839399110400,1.9401103515625,-4.870385437950492,0.9414794708460569,0.8735770242258906
1684115839419239200,1.9602392578125,-2.7416698206976053,1.1587164466261863,1.8899752501949667
1684115839439368200,1.9803681640625,-1.179726501429081,1.5369295817822217,2.7518147826150057
1684115839459497200,2.000497314453125,0.45312049210220573,1.5047978289842605,1.8787313871249556
1684115839479626200,2.020626220703125,1.7014190099760889,0.7894698772579432,0.33713498257547614
1684115839499756300,2.04075634765625,0.9697902040511369,0.13876023591458797,0.5326064090102911
1684115839519885300,2.06088525390625,-0.6736579707324505,0.46051440174579616,1.1179621191725133
1684115839540014300,2.081014404296875,-2.3832509348139164,0.9270967252284288,1.1836118184298277
1684115839560143400,2.101143310546875,-3.4840357092142105,1.3311562493026257,-0.6504086125701666
1684115839580272000,2.121272216796875,-3.9459202302694316,1.1503028385460377,-2.2683158111229536
1684115839600401200,2.141401123046875,-3.979255513638258,1.3746055149286984,-1.050181253105402
1684115839620531200,2.16153125,-2.6002076323479413,2.238064757505059,1.4313321952790021
1684115839640660200,2.18166015625,-1.4906006690666078,2.6396225278913974,1.9590590155541896
1684115839660789200,2.201789306640625,-1.684071715464443,1.722924447080493,-0.8295689556732774
1684115839680918300,2.221918212890625,-1.6359421830676495,1.2494897734850645,-0.701048374222219
1684115839701047300,2.24204736328125,-1.3887481681801377,1.8160674256801603,1.7551891786083578
1684115839721176000,2.262176025390625,-0.9424233275674283,2.320492280822992,3.168708069299161
1684115839741305300,2.282305419921875,-0.29735607602521774,1.4672259309589861,1.637415616621077
1684115839761435400,2.302435302734375,1.3643570926368236,-0.4821183307886123,-1.1637179081752895
1684115839781564200,2.322564208984375,1.0722328528504819,-0.31439269715249535,0.06375730963945389
1684115839801693000,2.34269287109375,-0.5055506443023682,0.8243523900687694,2.026746358118951
1684115839821822200,2.362822265625,-1.312264501827955,0.41420857764482494,1.7280106643036006
1684115839841951200,2.382951171875,0.5781131916880607,-0.8344517592787742,-1.5206868875116109
1684115839862081000,2.4030810546875,0.014832754407450556,-1.6211147624224422,-2.417439620141685
1684115839882210000,2.4232099609375,-1.1249896066565066,-0.2941659016817808,-0.025354806008934975
1684115839902339000,2.443339111328125,-2.4252304201483725,0.028766660279035565,0.7920420658335089
1684115839922467800,2.4634677734375,-2.342352230453491,-0.3254898452281952,-0.4334738346070051
1684115839942597000,2.48359716796875,-0.28356910434365273,-1.3861661888629198,-2.5280092420995235
1684115839962726100,2.50372607421875,0.9707762924790382,-1.443061211517453,-1.0941419753849506
1684115839982855200,2.523855224609375,0.45561713122352954,-0.36375907786786554,1.293124332550168
1684115840002985000,2.54398486328125,-0.7994203395165502,-0.22374211989045142,0.8645373932018876
1684115840023114000,2.564114013671875,-1.4517020524822175,-0.6708259621769189,-1.0055746341377496
1684115840043243000,2.584242919921875,-0.41545390153080225,-1.5632202073365449,-2.690972191378474
1684115840063372000,2.6043720703125,-0.48095294027104973,-1.4572908123999833,-0.7658315197780727
1684115840083501000,2.6245009765625,-3.000460749876499,-0.8770809406936169,0.8842755283728242
1684115840103630000,2.644630126953125,-5.076446355199813,-0.8260065870165825,-0.439290996453166
1684115840123759900,2.664759765625,-4.013729737909138,-1.5525404078900813,-2.575526195555925
1684115840143889000,2.684888916015625,-2.4901266706898806,-1.6846078681677579,-1.712881191971898
1684115840164018200,2.70501806640625,-1.5978282871201634,-1.1003881762981413,0.3073699589088559
1684115840184147200,2.725147216796875,-0.3904652984857559,0.24131752406954765,0.6570633942842483
1684115840204276000,2.74527587890625,-0.28664953470230103,0.3490297107696533,-0.15281126535981893
1684115840224405000,2.765405029296875,1.0299819301635027,-0.682114833432436,-0.8698091961249709
1684115840244535000,2.78553515625,5.5671355304569,-0.2512678401976824,1.3802283232465387
1684115840264663800,2.805663818359375,7.911585025450587,1.4467290863752365,3.2822263119295236
1684115840284793000,2.82579296875,6.109699269858003,1.0985077693790197,1.4136127064540982
1684115840304922000,2.845922119140625,4.388553522887825,1.4106652548253535,0.09821224468797445
1684115840325051100,2.866051025390625,2.63243700030148,1.2589689649701117,-1.3535115812346339
1684115840345180200,2.88618017578125,2.6734944023549554,1.9871797791451216,-1.4118103332072496
1684115840365309000,2.906308837890625,3.5574995893537995,3.486447446531057,-0.12434241898357867
1684115840385439200,2.926439208984375,3.012337650153041,4.76522176668942,0.10811755263060331
1684115840405568000,2.946568115234375,1.9135387888729571,5.095630948141217,-0.30031711778789755
1684115840425697000,2.966697021484375,2.552754391777515,5.253640074405074,-0.9056628920555114
1684115840445826000,2.986825927734375,6.715399556651711,5.7834811103552575,1.0217252662107348
1684115840465955000,3.006955078125,8.43998930659592,6.568917786574364,1.8371932158172128
1684115840486084000,3.027083984375,6.735567899933457,5.9231350802391765,0.6524436255291104
1684115840506212900,3.047212890625,6.003940555313229,4.03590912875235,0.40689767010957
1684115840526343200,3.06734326171875,8.339239944645762,1.7931372164696453,1.1387769436642527
1684115840546472200,3.08747216796875,10.508162776863575,1.453923381793499,1.8454574785545468
1684115840566601000,3.10760107421875,9.171592685818672,1.5597779579281805,3.3330668568506834
1684115840586730000,3.12772998046875,5.8625365268915886,0.05275543863177299,1.9684619269326329
1684115840606859000,3.14785888671875,0.9386196975007652,-1.5256675985336303,-0.9086419078662991
1684115840626988000,3.167988037109375,-4.491634250394999,-1.5108324329733849,-2.450056233847141
1684115840647118000,3.1881181640625,-8.276751632028818,-0.9525088143825531,-1.5725062143370507
1684115840667247000,3.2082470703125,-8.589013746893405,-1.2001286534667015,-2.185191537712514
1684115840687376100,3.228376220703125,-7.616633526349068,-1.324821785584092,-1.664913279877603
1684115840707505000,3.2485048828125,-4.902171153789759,-1.4513912329673766,0.2959083614349365
1684115840727634000,3.268634033203125,-1.9549413511022924,-0.708967184522748,1.602467052836716
1684115840747763200,3.28876318359375,-0.6506640486359596,-0.22338439249396322,1.3084960892051458
1684115840767893000,3.30889306640625,0.7384813021682203,0.07777239098846912,1.4797370374858378
1684115840788022000,3.32902197265625,2.053429782383144,-0.34897067405879495,0.5559786628998815
1684115840808151300,3.3491513671875,2.9395430475771427,-0.21150749221742152,0.5349094252556562
1684115840828280300,3.3692802734375,3.365487655723095,-0.06781096894443035,0.6110717506989837
1684115840848409000,3.3894091796875,1.8795698837757109,0.22291794402599333,-0.017406477352976797
1684115840868538000,3.4095380859375,-0.12675590986609458,0.565611437511444,-0.9064335841670632
1684115840888667100,3.429667236328125,-1.33676181422472,0.5142886620312929,-0.4618668392680585
1684115840908797000,3.449796875,-0.9787749630827456,-0.23190672164559362,-0.30465733894929287
1684115840928926200,3.46992626953125,-0.6046854837279766,-0.41023149070739745,-0.8955481791459023
1684115840949055200,3.49005517578125,-0.807702284041047,-0.464675613078475,-1.0385299782782793
1684115840969184300,3.510184326171875,-1.3351216458022594,-1.0416285288155078,0.22201018153131008
1684115840989313000,3.53031298828125,-1.736767240602523,-0.371255571103096,0.5549069420151412
1684115841009442000,3.550442138671875,-0.008719897550344467,-0.0732160428583622,0.3878393338963389
1684115841029572400,3.570572265625,0.553015283049643,0.5475888740867376,0.5853412432454526
1684115841049701000,3.590701171875,0.28380992736220356,0.932463805219531,0.4012929819703102
1684115841069830100,3.610830078125,-0.4378337833821773,1.1571043352544308,0.3420154480934143
1684115841089959200,3.630959228515625,-0.04420329886376857,1.43985920060575,1.0375304458469152
1684115841110088200,3.651088134765625,0.004112696015834808,1.597823318684101,0.9001043811455368
1684115841130217000,3.671217041015625,-0.5039166133597492,1.5509417405217885,1.3508353477627038
1684115841150346000,3.691345947265625,-1.457086229738593,0.9371803123474121,0.4062301461115479
1684115841170476300,3.711476318359375,-1.2147224114865063,0.5146586643874645,-0.32603315832465884
1684115841190605000,3.73160498046875,0.4864990300908684,0.41991701841950413,0.16489165231920777
1684115841210734000,3.751734130859375,2.126907106526196,0.7594388961315155,0.9770631907287984
1684115841230863000,3.771863037109375,1.1088885858789086,0.9321008171260357,0.6393274657811969
1684115841250992000,3.7919921875,-0.6512570460930466,0.622268559756875,0.3295520531658083
1684115841271121200,3.81212109375,-1.5281491862162946,0.5852887824058532,0.5386007540542632
1684115841291251200,3.832251220703125,-0.478592202489078,0.6869710412919521,0.3714938368383795
1684115841311380200,3.852380126953125,0.7846762132406234,1.0741963349431753,0.41600510567277665
1684115841331509000,3.872509033203125,-0.8843737280502915,1.0708592994749546,0.39521022799052297
1684115841351638000,3.892637939453125,-2.545313428121805,0.9902128143548965,0.49200230368226766
1684115841371767000,3.91276708984375,-2.7800387143194674,1.704992484548688,0.5673644917238503
1684115841391896300,3.932896240234375,-0.8525181618452071,2.3715941070288418,0.039789354879036544
1684115841412025000,3.953025146484375,0.15244681596159934,3.8623429523944854,-0.21371786174327134
1684115841432155100,3.973155029296875,-1.0816372985988856,4.055706300634146,-1.2524860326915979
1684115841452284200,3.9932841796875,-2.977420066028833,4.15025271629095,0.3425257357031107
1684115841472413200,4.0134130859375,-6.498142707127332,3.9979187130540605,3.530010109403729
1684115841492542000,4.0335419921875,-8.701806597858667,1.778503126439452,3.14165902659297
1684115841512671200,4.053671142578125,-8.107917744889855,0.25075462997853754,0.5970319733001291
1684115841532800300,4.07380029296875,-4.208285803064704,0.3830477157056331,-0.01828727877549827
1684115841552930000,4.093929931640625,0.20237258412539957,0.2278343576401472,1.6302628222569822
1684115841573059000,4.11405908203125,4.489868117505312,-0.7377882053375243,1.5259741802647708
1684115841593188000,4.13418798828125,6.912244901788235,-1.9311679690659045,-0.28032208524644375
1684115841613317000,4.154317138671875,5.5085588383257384,-1.827539836809039,-0.4195477467156946
1684115841633446100,4.174446044921875,3.043542351233959,-0.8465729897052049,0.7191042553946375
1684115841653575200,4.1945751953125,0.9594172785967587,-0.09179974729716778,1.0749413080915808
1684115841673704200,4.2147041015625,0.24062018945515154,0.2908680291801691,-0.13599164798408747
1684115841693834000,4.234833984375,-3.20996420879513,1.5673387485712766,-0.8131010743446647
1684115841713963000,4.254962890625,-6.777264768934249,2.414211598005891,-0.2825334776856005
1684115841734092300,4.27509228515625,-7.163347322291135,2.7553222062140703,0.8794745578318833
1684115841754221300,4.29522119140625,-3.421579545301199,2.435132805481553,1.2047741411849855
1684115841774350000,4.31535009765625,-1.2218690683707594,2.0596330209374427,1.3400006500154733
1684115841794480600,4.335480712890625,-1.8571674978315829,1.8511644580245017,1.0886594523206352
1684115841814609400,4.355609375,-2.5534067182064053,2.096011325263977,0.3467617658376694
1684115841834738400,4.375738525390625,-3.8724566423907874,1.9905431180983781,0.522365877763927
1684115841854867500,4.395867431640625,-2.9968028118908405,1.7406459817320108,0.6524310583084821
1684115841874996500,4.41599658203125,-0.3361987246386707,0.974635305994749,-0.5042015677809715
1684115841895125500,4.43612548828125,1.4148575919486581,0.2106283712953329,-0.881056858587265
1684115841915254500,4.456254638671875,1.7478326783657072,1.1017688170015811,0.6217614870175718
1684115841935384600,4.476384521484375,1.0525468862581997,1.4553005153656005,1.6838348379686474
1684115841955513600,4.496513671875,0.38302798809185623,1.01405955388844,1.3375237385079264
1684115841975642400,4.516642333984375,0.18615341686084866,0.07506137846410274,-1.5396920322328804
1684115841995771400,4.536771484375,-0.3520025891005993,-0.11653846723437308,-0.8982812573716044
1684115842015900700,4.556900634765625,-0.7339898359678685,0.7027636537075043,0.6526116755723953
1684115842036029700,4.57702978515625,-2.0160475617110727,1.1336217528581618,1.7313631896018982
1684115842056159500,4.597159423828125,-2.029934632766247,0.831669435083866,1.1406836540684104
1684115842076288500,4.61728857421875,-2.0328814998731017,0.1299006376326084,-0.7086357606112956
1684115842096417500,4.63741748046875,-1.72935930243358,0.4006049997061491,0.28740853637605907
1684115842116546300,4.65754638671875,-1.0345749570421874,0.9612339726299047,0.5887234330296516
1684115842136675600,4.677675537109375,0.494679706197977,0.9404922133743763,-0.3180959355846047
1684115842156804600,4.6978046875,0.8466554072916507,0.07388122876882552,-2.6180256131112576
1684115842176933600,4.71793359375,-0.4246107291936874,0.07935118461251259,-1.4106339829042553
1684115842197063400,4.7380634765625,-2.2086169830940663,-2.801123003402352,2.6210224568396807
1684115842217192400,4.7581923828125,-6.5768287058293815,-3.1414380773186683,-6.227296306234598
1684115842237321700,4.77832177734375,-5.111096228298544,-3.605755963000655,-6.492801346099376
1684115842257450500,4.798450439453125,-1.5595686990916728,-3.736854285985231,-2.82234144025892
1684115842277579500,4.81857958984375,0.7718740148127079,-2.3752561366677285,0.015494506251811981
1684115842297708500,4.83870849609375,0.5943629002213477,-1.9998025293529031,2.000179545971751
1684115842317837600,4.858837646484375,-1.2215830910362302,-2.462723992240429,0.21722294725477695
1684115842337967400,4.87896728515625,-2.4297056658662854,-3.087145930638909,-1.3616625928558408
1684115842358096600,4.8990966796875,-1.702111522284895,-2.0314006136655807,-1.3106453761935233
1684115842378225700,4.9192255859375,-0.9735679690241813,-0.5293173043370246,0.18700199651420116
1684115842398354400,4.9393544921875,-1.373797121155262,0.9330898281633854,2.0317352524474264
1684115842418483500,4.9594833984375,-0.0298740369990468,1.3210475277423859,0.8101964389443397
1684115842438612500,4.979612548828125,2.9268200518652794,2.716331089040637,2.1622208503611384
1684115842458741500,4.999741455078125,5.247167078998684,3.421583052432537,2.83012814861238
1684115842478871600,5.01987158203125,8.108613910460472,4.097095126599073,1.5339103800915181
1684115842499000600,5.04000048828125,10.286764589750765,4.554504548066854,2.789111078569293
1684115842519129600,5.060129638671875,8.887485236814618,4.13068876864314,2.8137954379707573
1684115842539258400,5.08025830078125,5.235815079379082,5.5183659465909,1.2338434376724063
1684115842559387400,5.100387451171875,3.033177024564147,6.792104610669613,2.6467367438107727
1684115842579516400,5.120516357421875,3.556919159117341,6.854377234709262,3.6775387581855057
1684115842599646500,5.140646484375,4.420488876330852,5.718078371596336,2.107807853780687
1684115842619775500,5.160775390625,6.517714838081598,4.882762688964605,2.3229973955117167
1684115842639904500,5.180904541015625,9.319429962158203,3.2929677784353495,3.5390041477203367
1684115842660033500,5.201033447265625,11.27418572756052,2.841440400743484,4.5870255924433465
1684115842680162300,5.221162353515625,9.67873030705154,2.042473796343803,4.2858726083531975
1684115842700291300,5.241291259765625,5.848394019770622,1.22659580463171,4.229959290212393
1684115842720420600,5.261420654296875,1.8902914765372871,-0.8182277697086334,4.948314480805397
1684115842740550400,5.28155029296875,0.09226531898230314,-1.8511124355763195,1.1371961042135954
1684115842760679400,5.301679443359375,-3.0309914972186087,-2.8237054220885036,-5.036260475283861
1684115842780808400,5.321808349609375,-3.801047941215336,-5.910206625083089,-9.36397053015232
1684115842800937200,5.341937255859375,-3.8278155366316438,-6.734084967899322,-9.984693029510975
1684115842821066200,5.362066162109375,-4.060801285685598,-5.397467530581355,-8.429507075548171
1684115842841195000,5.382195068359375,-3.536002043294906,-2.2053771243900058,-3.397643958440423
1684115842861324000,5.402323974609375,-2.6926608751177787,-0.32133447911441326,0.4925006085932255
1684115842881454300,5.422454345703125,-2.553133161962032,0.8084136471807957,1.8167466401159762
1684115842901583000,5.4425830078125,-1.6905742292262613,0.9742039288401603,1.993034642653167
1684115842921712000,5.462712158203125,-0.6595734043437987,0.6438198818296194,1.6205702802821993
1684115842941841200,5.482841064453125,-0.7489655059773475,0.7702993128418922,1.183909632332623
1684115842961970200,5.50297021484375,-2.0532044491946695,0.06969839012622833,0.04227700697630644
1684115842982099000,5.523098876953125,-1.6902128485679626,-0.14663491481244564,-0.9933213017642497
1684115843002228000,5.54322802734375,-0.3621101416170597,-0.13103694818615913,-0.8678986863285303
1684115843022358300,5.563358154296875,0.8466121526718139,0.29964053370058535,-0.5428904871374368
1684115843042487000,5.583487060546875,1.2550678658783434,0.5473918902099132,0.10066577531993388
1684115843062616000,5.603615966796875,0.23312840892765668,0.8065577901810407,-2.540722008678317
1684115843082745000,5.6237451171875,-0.42318106171675024,0.942991628974676,-2.130235666427016
1684115843102874000,5.6438740234375,0.1867512366235256,1.0001274746477604,-0.1187818622469902
1684115843123003100,5.664003173828125,0.9911616395123303,1.3137778290003537,1.5958812447056174
1684115843143132200,5.684132080078125,0.09573423720188438,1.552964186260104,2.074114258493483
1684115843163262200,5.70426220703125,-1.45024732362926,1.188252922233939,0.28116321224570273
1684115843183391000,5.724390869140625,-0.5742039823550731,1.158511863964796,-0.21750030289143324
1684115843203520000,5.74452001953125,2.4908172833025453,-1.9093927751094102,1.7626272196546195
1684115843223649000,5.76464892578125,-0.38504546539410944,1.096470710593462,-3.5768618769496676
1684115843243778300,5.7847783203125,-1.3325661161005495,0.4837812955647707,-0.09205839823335409
1684115843263907000,5.804906982421875,1.7025087049089371,0.7267465868413447,0.7546478624626993
1684115843284036000,5.8250361328125,1.8673112907052039,0.49714814213812347,0.6543781007230282
1684115843304166100,5.845166259765625,2.0943878157153724,0.35679625311791896,0.5741071709170937
1684115843324295200,5.865295166015625,1.8262030352473257,-0.3781798174083233,0.2556877024665475
1684115843344424200,5.885424072265625,1.1305044976204632,-1.0892501116901636,0.03728898943066597
1684115843364553200,5.90555322265625,0.39443654020428653,-0.8222136244744062,-0.5315963551849127
1684115843384682200,5.92568212890625,-0.44405894150733943,-0.2507400169312954,-0.5490545627251268
1684115843404811300,5.945811279296875,-0.4608312126100063,0.4609411027252674,-0.06994447384178638
1684115843424941000,5.965941162109375,-0.5621311941802501,0.8400374504566193,-0.029599311710894107
1684115843445070000,5.986070068359375,-0.9434007942974567,1.3601444433778525,-0.476048363225162
1684115843465199400,6.006199462890625,-1.354432495471835,1.4896370847314595,1.0702721472367644
1684115843485328100,6.026328125,-0.587264174132049,1.5083365245044231,1.148424185192585
1684115843505457200,6.04645703125,-0.16964257317334414,1.16644908670485,-0.3409586325168609
1684115843525586200,6.066586181640625,-1.0321019910573959,1.4875263761878013,-0.9736641228750348
1684115843545715200,6.086715087890625,-2.280820195648074,1.6886755559980868,0.0017965280279517173
1684115843565844000,6.106843994140625,-2.523030284643173,2.081174990659952,1.0636293482214212
1684115843585974300,6.126974365234375,-1.928356126515567,2.0402391691595314,1.117720127110183
1684115843606103300,6.147103271484375,-2.338292725929618,1.687728046014905,0.4367652773678303
1684115843626232000,6.167232177734375,-3.125666507691145,1.1355658726632594,-0.1610708519220352
1684115843646361000,6.187361083984375,-4.33201739667356,0.9874304901599883,0.5221136565685272
1684115843666490000,6.207489990234375,-5.091757906100153,0.681245649382472,1.0216767508938909
1684115843686619100,6.227619140625,-4.675866489934921,-0.43543607459068295,-0.09775310274362564
1684115843706749200,6.247749267578125,-2.911893700890243,-1.3258242406249046,-1.8474886921212077
1684115843726878200,6.267878173828125,0.5030366156548262,-0.5306845010370016,-0.5801642789989709
1684115843747007200,6.28800732421875,2.700229556806385,-0.06667232030332088,1.2222946003064512
1684115843767136000,6.308135986328125,2.6471079152107237,0.26795126397311686,1.8826652194425462
1684115843787265000,6.32826513671875,1.3394310334339736,0.5842880809307098,1.27381757453382
1684115843807394000,6.34839404296875,-0.2726014278665185,1.1485475193113088,0.42436873713135714
1684115843827523000,6.368523193359375,-2.6897943797707558,1.3290408645838498,0.10715630638301372
1684115843847653000,6.388653076171875,-3.801928523442149,2.1251772139936684,1.3486474823296069
1684115843867782100,6.4087822265625,-3.5873590133056044,2.354763383737206,1.8538567658483982
1684115843887911200,6.4289111328125,-3.4125755701124665,2.2495301543712616,-0.16080840159356594
1684115843908040000,6.4490400390625,-3.3151951000735163,2.3548487239331006,-0.182281982254982
1684115843928169000,6.4691689453125,-1.8350750546194612,2.684816006836295,1.6233356533423065
1684115843948298000,6.489298095703125,-0.023229776678979394,2.689460033249855,2.297370056171715
1684115843968427000,6.509427001953125,1.6701228312194347,2.0414684186935426,-1.0806871582672
1684115843988557000,6.52955712890625,1.949041479408741,1.0579022027462721,-2.490437636335194
1684115844008686000,6.54968603515625,1.638843895858526,1.634739383149147,-0.0912456205457449
1684115844028815000,6.569815185546875,0.7607073086321353,1.8200304840922354,1.5877753874003886
1684115844048943900,6.58994384765625,-0.10036766915619373,1.5111504128813742,1.0902914374366401
1684115844069073000,6.610072998046875,-1.0464385594457388,0.19909633893370626,-2.4618401951432225
1684115844089202200,6.6302021484375,-1.4517439919278026,0.12213760241568088,-2.2467235725179315
1684115844109331200,6.650331298828125,-1.1800959192633629,0.7706979567706584,-0.7454393046125769
1684115844129461000,6.6704609375,-1.0985466400846837,1.1273527555912732,0.6902998934537172
1684115844149590000,6.690590087890625,-0.24759265881627796,1.3399509656548498,1.0893716922432184
1684115844169719000,6.710718994140625,0.41530981688499446,0.867369694018364,-1.0438789380908011
1684115844189848000,6.73084814453125,-1.655541348159313,0.9476397470414638,-2.049503841111064
1684115844209977000,6.75097705078125,-2.7722075823023915,0.922974676862359,-1.0446516760289668
1684115844230106000,6.771106201171875,-2.261122392487526,-0.10320786101818084,0.3104389910906553
1684115844250235100,6.791235107421875,0.625002660895884,0.012040566405653952,1.4823695779465138
1684115844270365000,6.811364990234375,1.363759711265564,-1.0744318972647189,0.8779729210972785
1684115844290494000,6.831493896484375,0.3605225801646709,-1.8008078972280024,-0.5615060480192303
1684115844310623000,6.851623046875,-0.2975155043706298,-2.200475323823094,-0.7636274338625371
1684115844330752300,6.871752197265625,-2.466897478532791,-3.2164977022171017,-0.13388064717948436
1684115844350881000,6.891881103515625,-4.684126953279971,-4.977638190445304,-2.1708850722014903
1684115844371010000,6.912010009765625,-6.472648200386762,-6.718191233196854,-5.799725558191538
1684115844391139000,6.93213916015625,-5.179942970031499,-5.51875816077888,-5.250584778487682
1684115844411268000,6.95226806640625,-3.657910220868885,-2.8828356564491986,-1.23451709915027
1684115844431398100,6.972398193359375,-2.1207260798037053,-0.6187503225028514,2.4477657848224044
1684115844451527200,6.992527099609375,-1.078077852551639,-0.1878314330756664,3.210691646286845
1684115844471656200,7.01265625,-1.4954862491510807,0.5504238052517175,0.42047070677950976
1684115844491785000,7.032784912109375,-2.7680741357594725,2.151882850089669,1.348083272575587
1684115844511914000,7.0529140625,-1.9466776728868482,1.7604279560446738,2.4763348767027256
1684115844532043000,7.07304296875,1.6056465596556662,1.7069249139159917,2.6637568521946666
1684115844552172000,7.093172119140625,4.305505237323046,1.0816448973834514,1.639987512935698
1684115844572302000,7.113302001953125,5.29762242399454,1.9473972193330524,2.605907305294275
1684115844592431000,7.13343115234375,5.872428390830755,1.91306707970798,2.444292409623414
1684115844612560100,7.15356005859375,6.588493424659967,1.5378192240983246,1.4005654472239315
1684115844632689000,7.17368896484375,7.52634359909296,1.2722434570848942,0.9864610606059432
1684115844652818000,7.19381787109375,6.517240790829062,1.229984862548113,1.421817347958684
1684115844672947000,7.213947021484375,5.130080914753675,1.2507277908474206,0.2906118624620139
1684115844693077000,7.234076904296875,4.601073407018184,-0.11911036354899406,-0.47580520211905236
1684115844713206000,7.2542060546875,2.924480503001809,-0.3709890291213989,-3.699364221024513
1684115844733335000,7.2743349609375,4.683350708210468,-0.9965478625953197,-2.3233286732926963
1684115844753464000,7.294464111328125,7.154904488116502,-0.18115502405166625,-0.22822540278434753
1684115844773592800,7.3145927734375,8.682130422008036,-0.10541326210796832,1.212643559385836
1684115844793722000,7.33472216796875,9.235364023983479,-0.11913783607780933,2.8312714734286066
1684115844813850400,7.354850341796875,8.639719267258048,0.3994622594118118,3.5484038442283867
1684115844833979400,7.3749794921875,6.283084244430065,0.6853045693844556,4.597308209265768
1684115844854109200,7.395109130859375,2.590204124727845,-0.1398041920095682,4.24850266264081
1684115844874238500,7.415238525390625,-0.8082322992645203,-2.115518574288487,-0.34879181036055085
1684115844894367500,7.435367431640625,-5.904358483576774,-4.647857370024919,-6.910847309949994
1684115844914496500,7.45549658203125,-8.055835675475,-2.9826170501500364,-8.88641965340972
1684115844934625300,7.475625244140625,-6.901798326575756,-1.524845760756731,-4.818854280416667
1684115844954754300,7.49575439453125,-4.241194969975948,-0.11395780309140681,1.9192130351170897
1684115844974883300,7.51588330078125,-2.3968645957551895,-3.3048885178536174,0.9982336237251758
1684115844995013400,7.536013427734375,-0.9898583018288015,-2.4033459205985066,-1.430409527476132
1684115845015142400,7.556142333984375,0.6129261463940143,-1.6529285353124141,-0.9206102858185767
1684115845035271400,7.576271484375,3.0266917541980742,-1.7402543520659208,-0.25071459022909404
1684115845055400400,7.596400390625,3.7040520865797992,-1.5504630170941351,1.1936375378817319
1684115845075529200,7.616529296875,1.280673431777954,0.026661796954274175,1.897887923015654
1684115845095658200,7.636658203125,-1.2349065368592738,1.0832616849303245,0.8476555242449044
1684115845115787300,7.656787353515625,-1.7869503445282577,1.7152005748301744,-0.03787365745082497
1684115845135917300,7.676917236328125,-1.3006848309323191,0.26560850023925303,0.8718303266890346
1684115845156046300,7.69704638671875,0.04301175099164247,1.6562813528716562,0.17759689317867158
1684115845176175400,7.71717529296875,-0.3515273728042841,1.9572703785717487,-0.1802224193766713
1684115845196304400,7.737304443359375,0.07591419590115547,1.5696867730021475,-0.0783373313948512
1684115845216433400,7.757433349609375,1.1545499745965004,1.4191530971854924,-0.006176935069262981
1684115845236562400,7.7775625,1.3587234706640243,1.0422890385508536,1.0211731852859258
1684115845256691500,7.79769140625,1.328854109840095,0.8570657421469688,1.151780071491748
1684115845276821200,7.8178212890625,1.4164026294335723,0.36903964861929417,-0.3060920479275286
1684115845296950300,7.8379501953125,1.697138556177914,0.5292442391008139,-1.3383658884204923
1684115845317079300,7.858079345703125,0.2456856561511755,0.6579623889505862,0.3520351761959493
1684115845337208300,7.878208251953125,-1.929225602826476,0.9287819018363952,1.9396379835084079
1684115845357337600,7.898337646484375,-3.213252436685562,0.5673655877023935,0.5654951176553964
1684115845377466400,7.91846630859375,-1.4567404850408434,-0.2140443172186613,-2.374768499281257
1684115845397595400,7.938595458984375,0.9027718467891216,-0.8879705834984779,-1.7817162432670592
1684115845417724400,7.958724365234375,-1.2345359499812125,0.5309516275405883,-1.238112054902315
1684115845437853400,7.978853515625,-3.0719796334281564,1.273541680201888,0.07885624070242046
1684115845457983500,7.9989833984375,-3.4825434248298404,1.2680664636611938,-1.3075199376493691
1684115845478112500,8.019112548828126,-1.1700181773632765,1.2901461935222147,-1.5420660678878426
1684115845498241500,8.039241455078125,1.176175530949235,2.0049808087736367,-0.09894903452992439
1684115845518370300,8.059370361328124,2.5255577572941776,2.4404502011120317,1.436067699368298
1684115845538499300,8.079499267578125,1.6563611401095986,2.4415812509685755,2.2267468062855302
1684115845558628400,8.09962841796875,1.5695888655856252,1.4252414771884678,1.3681604304425417
1684115845578757400,8.11975732421875,2.825373647561669,0.8681400938689708,0.2165171370729804
1684115845598887400,8.139887451171875,2.558736388796568,0.9826654677152633,1.95446993419826
1684115845619016400,8.160016357421876,1.01251173992455,1.495869257119298,1.764153698569536
1684115845639145500,8.1801455078125,-1.8297955067813396,0.6501806490331887,0.30702216838449237
1684115845659274200,8.200274169921874,-1.5835773511886595,-0.3077642189234495,-1.6060785213321447
1684115845679403300,8.2204033203125,1.1941793896734714,-0.12988894719481467,-0.8126274654835463
1684115845699532300,8.2405322265625,1.2865259571984409,0.15420798041522502,1.4308796292059123
1684115845719661600,8.26066162109375,-1.3081141041502355,1.465926538798213,0.7407485164478421
1684115845739791400,8.280791259765625,-3.6538504240840672,1.1743453929126262,-1.9540736283570528
1684115845759920400,8.30092041015625,-4.013236401434242,0.225089442846179,-2.9898686287134884
1684115845780049400,8.32104931640625,-4.123308303003013,0.24831366656720638,-1.3268708270683884
1684115845800178700,8.3411787109375,-2.1390940956652162,0.3931131826460361,0.2524897832080722
1684115845820307700,8.3613076171875,-0.004318447721004486,0.9352151497542858,1.5515271391943095
1684115845840436700,8.381436767578125,-3.7866082047134637,0.2952028435140848,2.0443845984011886
1684115845860566800,8.40156689453125,-7.036880166238546,0.6055681848466395,1.3099851587191222
1684115845880695800,8.42169580078125,-4.707658635514974,0.5481716424107551,0.7450298470288514
1684115845900824800,8.441824951171874,-1.6338240218698978,-0.5040115981668234,0.24018296708166598
1684115845920953900,8.461953857421875,1.1232619791463017,-0.8766291052728891,0.725794985204935
1684115845941082600,8.48208251953125,1.314038525763154,-0.6373685137331485,1.2512626283764838
1684115845961211600,8.502211669921875,-0.29843934121727944,0.22477672363519668,1.0986723122909665
1684115845981341000,8.5223408203125,-0.939466961979866,0.926279563626647,1.0742720305278897
1684115846001470000,8.542469970703126,-1.9260180389568209,0.5748182417958975,-1.2840104672461747
1684115846021599700,8.562599853515625,-4.387089295554161,0.8907453089088201,-2.2000945078119636
1684115846041728800,8.582728759765626,-5.615243435543775,2.270161438989639,0.201754452227056
1684115846061857800,8.60285791015625,-2.0037915989890696,3.094350747451186,2.470012395682931
1684115846081986800,8.62298681640625,1.2821771143391727,2.1558540918082,-0.420427452159673
1684115846102115800,8.64311572265625,1.4449147304296492,0.9668827921718358,-2.8958009364843367
1684115846122244900,8.663244873046875,-1.2198261643663049,2.0865344718664884,-0.043728667089343067
1684115846142374000,8.683373779296875,-0.03197802354097366,3.0758745950400828,2.644079799561202
1684115846162503700,8.703503662109375,1.6882886025071142,2.918724715954065,3.0246245925351976
1684115846182632700,8.7236328125,0.5007610719382762,2.1707132227659223,-1.6817869655281303
1684115846202762000,8.743761962890625,-1.8334899773851037,1.9839719230145214,-2.081755420896411
1684115846222890800,8.763890869140624,-2.584278826332092,3.2062779214978216,0.10672551375031471
1684115846243019800,8.784019775390625,-1.6616016711115835,3.3617373632788654,2.211147524484992
1684115846263148800,8.804148681640624,-1.2301850612953305,2.914796728855371,0.871103327588737
1684115846283277800,8.82427783203125,-1.8530851969540119,1.2544973725140094,-2.5966768278732895
1684115846303407900,8.844407958984375,-0.2050035171508789,0.6740121909976006,-1.521123233102262
1684115846323537000,8.864536865234374,1.5349030443906784,0.9385720589667558,0.1309732353001833
1684115846343666000,8.884666015625,0.3372054174631834,1.3963555744439362,1.0199950814172625
1684115846363794700,8.904794677734374,-1.853260261259973,1.220972704052925,-0.6442921755164861
1684115846383923700,8.924923828125,-1.660737747758627,-0.31267595636248585,-2.8249329180568457
1684115846404052700,8.945052734375,1.7485785282969473,-0.14000117588639258,-0.5380602905020118
1684115846424181800,8.965181640625,3.329699718505144,0.3613987784773111,1.744558186739683
1684115846444311800,8.985311767578125,1.020578872654587,0.2254769808590412,0.8463913495279848
1684115846464440800,9.00544091796875,-1.0147717938110232,-0.7831611325025558,-1.3745600683517754
1684115846484569900,9.02556982421875,-0.40257074682116506,-1.744567539089918,-0.3087304336071014
1684115846504699000,9.045698974609374,0.45398543836846944,-2.1654180389672515,1.669533779285103
1684115846524827600,9.06582763671875,-2.105361921933293,-3.1942168968260285,1.778592850549519
1684115846544956700,9.085956787109374,-4.8514802464723585,-5.925358016985655,-3.301722747299075
1684115846565086000,9.1060859375,-5.68369913213253,-7.754476647418737,-6.103643623080849
1684115846585215700,9.1262158203125,-2.874753472280502,-6.228899065256118,-3.4702100129574536
1684115846605344800,9.1463447265625,-2.3779601349294186,-4.158402120476961,-1.9922803171545267
1684115846625473800,9.166473876953125,-2.25372877510488,-2.399212766316533,-1.0069896155022084
1684115846645602800,9.186602783203124,-1.8447545909821985,-1.4678513693809507,-0.2318579140678048
1684115846665731800,9.20673193359375,-0.9540823473095893,-0.9811538941085338,-0.3012387626774609
1684115846685860900,9.22686083984375,0.6380021354615688,0.4566647405803203,0.9734095635920762
1684115846705990000,9.246989990234376,0.42324411701560016,1.5048346538633108,3.1138910219624636
1684115846726119000,9.267118896484375,0.5979939502000808,0.9516904837369918,1.3647598282188176
1684115846746248700,9.287248779296876,4.921019646644592,1.0848305416822432,0.3050450230926275
1684115846766377700,9.307377685546875,9.450587321853638,1.87267135643363,2.109278510855138
1684115846786507000,9.327507080078124,8.578394153201579,2.600597508448362,1.8710805801108479
1684115846806636000,9.347635986328125,5.8021443097710605,2.767192676749825,1.1151073873285204
1684115846826765000,9.36776513671875,4.051335245943069,2.8316075735151767,0.6800189571317284
1684115846846894000,9.38789404296875,5.25122307639122,3.6705192348122595,0.18415858978182076
1684115846867023000,9.408023193359375,5.387201572632789,4.3784933166444295,1.0430758050143718
1684115846887153000,9.42815283203125,4.382295047014951,3.967701853966713,2.3657696386590596
1684115846907282200,9.4482822265625,3.82024100972414,1.9271581489026546,0.3340569633696228
1684115846927411200,9.4684111328125,4.551046516567468,0.7421908242106438,0.25038755023181436
1684115846947540000,9.4885400390625,6.92944855004549,0.47007601081728934,2.7633909463793036
1684115846967669000,9.5086689453125,7.316907067930698,0.3770283092856407,5.174976872056722
1684115846987798000,9.528798095703126,5.477072982215881,-1.2666332159876823,5.664453164392709
1684115847007927000,9.548927001953125,6.554654283422232,-2.128930429047346,2.8023043221414086
1684115847028057000,9.56905712890625,7.943381262683868,-2.6090070248752832,2.2173418490804733
1684115847048186000,9.58918603515625,3.5692005485415454,-1.6651918045580387,3.8402129536509513
1684115847068315100,9.609315185546874,-2.7249580476105213,-0.12633856123685835,3.11999576857835
1684115847088444000,9.62944384765625,-8.425527650523184,-0.5631050076484679,-4.1991555711477995
1684115847108573000,9.649572998046875,-9.253519273877144,-2.5925924811691043,-9.079271544995903
1684115847128702000,9.669701904296875,-2.7909564141750334,-2.812423565095663,-5.2791410108864305
1684115847148831000,9.6898310546875,-0.391966350698471,-1.6261960112094878,-2.258383615173399
1684115847168961000,9.7099609375,-3.7479397436231374,-0.014148936861753463,0.6931140740916133
1684115847189090000,9.730090087890625,-6.708728408324718,0.559436548268795,0.20822131015360354
1684115847209219000,9.750218994140624,-3.113342448168993,0.20094635071456432,-1.1084095701903105
1684115847229347800,9.770347900390625,3.702469201302528,-0.9101391606867313,-0.05865267997682094
1684115847249476900,9.790476806640624,5.92917026875019,-1.6873077747762202,0.4243924102678895
1684115847269606100,9.810606201171876,3.1144658992409706,-1.2348235347509384,-0.3243126181423664
1684115847289735200,9.830735107421875,0.34746319210529325,-0.4120551990032196,-1.3585159653931855
1684115847309864000,9.850864013671876,0.29963176587224005,0.5163561159551143,-0.6543167259246111
1684115847329994000,9.870993896484375,1.912124392030388,0.7326566876679659,0.37482568467482924
1684115847350123000,9.891123046875,2.836854826518893,0.8514917414069175,0.49003056521788235
1684115847370251800,9.911251708984375,1.3908064158841966,1.6779951720297335,0.4013168012373149
1684115847390381000,9.931381103515625,-2.4000981708489357,2.5035247891843317,-0.4393712220825255
1684115847410510000,9.951510009765625,-4.2038977972388265,2.8630577737897633,0.576886426372081
1684115847430639000,9.97163916015625,-3.2748043452352285,1.900015874955058,0.47743280332088467
1684115847450768000,9.991767822265626,0.21128829650878905,1.0627665939122437,0.5548287622123956
1684115847470898000,10.01189794921875,0.6629962914645672,0.8825579107999801,-0.34091625467985864
1684115847491027200,10.032027099609374,-0.734698422628641,1.0294003308832644,-0.05407967297285795
1684115847511156000,10.052156005859375,-1.6665163311600684,0.4865010759174824,-0.5362132013306021
1684115847531285000,10.072284912109374,-0.6895908684015274,-0.48818157635033127,-1.6082830456390975
1684115847551414000,10.0924140625,2.097799962246418,-0.9134861330270767,-1.3505164910718799
1684115847571543000,10.11254296875,3.3966102314785123,-1.1966332125663757,-0.8465523853085934
1684115847591672000,10.132672119140626,0.8913599336758256,0.2946358572810888,-0.4652906762368977
1684115847611800800,10.15280078125,-2.5593723486125466,1.340433780735731,0.3389917163580656
1684115847631931100,10.17293115234375,-2.1090341807052493,1.1783739177763461,-0.4671892033345997
1684115847652060000,10.193059814453125,0.07225187400132417,0.9869354001194238,0.20054785291627047
1684115847672189000,10.21318896484375,2.9362498512506483,1.289263565468788,1.1218436367809772
1684115847692318000,10.23331787109375,3.3164681887492535,0.955571124562621,1.4030508342988788
1684115847712447000,10.253447021484375,2.141927565525472,-0.07384265032410621,-0.5725562882132827
1684115847732576000,10.273575927734376,2.1604592475160955,-0.5698164879858494,-1.4240643962331114
1684115847752705000,10.293705078125,2.8840298346698283,-0.7779448591589927,-1.04362905498296
1684115847772835000,10.3138349609375,1.8661667968451976,-0.1314654027312994,-0.426452265407145
1684115847792964000,10.333964111328125,-0.7668807365700602,0.5325286675989628,-0.24268457463905213
1684115847813092600,10.354092529296874,-3.7487528135716914,1.4562626383960247,-0.34169922175109385
1684115847833222000,10.374221923828125,-5.096577873602509,1.5893734702467917,-0.7555392583444714
1684115847853351000,10.394350830078125,-3.586501811954379,1.6803414428949355,-0.43104865328669545
1684115847873480000,10.41447998046875,-1.6129510374501346,2.105121098914742,1.7553579593040047
1684115847893608700,10.434608642578125,-1.1469798316031694,2.460086629474163,2.824622244672477
1684115847913738800,10.45473876953125,-1.4676745515093206,2.085396992269158,0.8390225743256509
1684115847933867800,10.47486767578125,-3.253981921958923,1.7323194674134252,-1.7422665686711667
1684115847953996800,10.494996826171874,-7.902392834213376,1.4603601368427275,-0.2234773314744234
1684115847974125800,10.515125732421875,-8.16854026363492,1.263953767645359,1.4102170726664363
1684115847994254800,10.5352548828125,-4.422300309666991,0.8382178338140249,0.6796224320948123
1684115848014383900,10.5553837890625,-1.920316320183873,-0.20081717137694358,-1.4071367884382604
1684115848034512600,10.5755126953125,0.6419923741415142,-0.8808084367841482,-1.364797091489285
1684115848054641700,10.5956416015625,4.207340631169081,-0.8530161744952202,1.1198454487010836
1684115848074772000,10.61577197265625,5.1081964152038095,-0.647201925483346,2.7227158216416836
1684115848094900700,10.635900634765624,2.0960136633515356,-0.26821722143292426,2.7293527754381297
1684115848115029800,10.65602978515625,-0.9683008422762155,0.13709551757276056,-1.177866552776098
1684115848135158800,10.67615869140625,-3.1572137385994195,-0.4975912097305059,-5.029583481737971
1684115848155287800,10.696287841796876,-4.530834918665886,0.6621896512567996,-1.8574242490716277
1684115848175416800,10.716416748046875,-4.396576085823774,2.165180723080039,1.9430928001374006
1684115848195545900,10.7365458984375,-1.8189464882478117,3.153435973626375,3.332491979572177
1684115848215676000,10.756676025390625,-0.6533510957628488,1.8912118062525987,-3.3729657365188
1684115848235804700,10.7768046875,-1.3341473939426243,1.1553092685312032,-3.8879429653361437
1684115848255933700,10.79693359375,-0.21298691712021828,2.873072971847653,1.639207760734856
1684115848276062700,10.817062744140625,1.294946287280321,2.895000141495466,5.077764452061057
1684115848296191700,10.837191650390626,3.013518968892097,1.6940607561677694,5.100056947889923
1684115848316321000,10.857321044921875,0.10353051710128784,0.7899158674597739,-2.268373094268143
1684115848336449800,10.87744970703125,-5.570296040314435,-0.5068184722810983,-3.899766089598834
1684115848356579800,10.897579833984375,-5.086370367842912,1.4606395383059978,-0.7827484600484371
1684115848376708900,10.917708984375,-2.3363950756147505,1.5727999365866183,1.5513878768540919
1684115848396837600,10.937837646484375,-1.3566829047471285,1.3212661389291285,-2.6228523026153443
1684115848416967000,10.957966796875,-1.9390607681423424,0.38803661003410816,-2.495680213163793
1684115848437096000,10.978095947265626,0.459754669419676,0.9301011677414178,0.4115975914288312
1684115848457225000,10.998224853515625,1.2961843046426773,0.9865782572448253,1.668578232125938
1684115848477353700,11.018353759765626,1.8475084197349845,0.7788952917516231,1.6868468792662024
1684115848497482800,11.038482666015625,0.9244035406216978,0.4731657935261726,-0.3443246748838574
1684115848517612800,11.05861279296875,-0.8555359022311866,-0.5189531467109918,-0.965444210736081
1684115848537741800,11.078741943359375,-1.2061281861424444,-0.6804208889961242,-0.8401116847366094
1684115848557870800,11.098870849609375,-1.3584174734547734,-0.5554723208129405,0.3082680037271231
1684115848578000000,11.118999755859376,-0.1859282298028469,-0.05181318934559822,0.2704129779115319
1684115848598129000,11.13912890625,-1.5087541653946042,-1.6538175931066275,-1.3634566366657614
1684115848618257700,11.159257568359376,-0.8887447827413678,-2.049295166796446,-0.5202643754400312
1684115848638386700,11.17938671875,-1.205896130952239,-2.1376514956414696,-0.47678719889372584
1684115848658517000,11.19951708984375,-2.8194389968156814,-2.4327076241612433,-1.0311512662038207
1684115848678645800,11.219645751953125,-4.842032034647464,-3.1927976776778695,-3.268145179606974
1684115848698774800,11.23977490234375,-5.401686025059223,-3.606545067551732,-1.8406050700873136
1684115848718903800,11.25990380859375,-3.426369994448125,-2.637726338881254,1.3881012485787272
1684115848739032800,11.28003271484375,-4.041850209239125,-1.804777385380864,1.4390183658674358
1684115848759161600,11.30016162109375,-4.5404690084517,-1.009486839145422,-0.26426523240413513
1684115848779291000,11.320290771484375,-4.443162480431795,-1.1389911709368228,-1.380942024473846
1684115848799420000,11.340419921875,-1.6843953944608567,-0.9309329423904419,-1.733537903292477
1684115848819549400,11.360549560546875,3.31888957067728,0.3305255013078451,1.353259652300179
1684115848839678500,11.380678466796875,7.36319360280931,1.659760427159071,3.0994749585971233
1684115848859807500,11.400807373046876,8.004872965478897,2.6452619950830933,2.359034777446091
1684115848879936500,11.4209365234375,5.938004148069024,2.6431080319195983,1.0071166028827427
1684115848900065500,11.4410654296875,4.506165756833553,1.84389417476058,0.3466515834614634
1684115848920194300,11.4611943359375,5.0384699680268765,2.550132226580381,0.469258337758854
1684115848940323600,11.481323486328124,5.070568403077125,3.5459611272513865,1.055220050990209
1684115848960453600,11.50145361328125,4.82135632636547,3.0409003122925755,2.414423487190902
1684115848980582400,11.52158251953125,5.3923395200431345,2.8335791658490894,2.782006507261097
1684115849000711400,11.54171142578125,8.619563198935985,4.003595005124807,2.141196620902419
1684115849020840400,11.56184033203125,11.618847890770434,3.4633325284034013,3.2604660232812166
1684115849040969700,11.5819697265625,11.3465846088171,1.6049766975700854,2.624747614842653
1684115849061098500,11.602098388671875,9.804563256853818,0.0347691155642271,0.5521625386778265
1684115849081227500,11.6222275390625,10.761286474061011,0.3505693414270878,1.64525683164075
1684115849101356500,11.6423564453125,5.739010100466013,0.22870880238711833,2.639119254544377
1684115849121486300,11.662486328125,-3.6123254045188427,-1.3699515516430139,0.025621201860159634
1684115849141615400,11.682615478515626,-6.866118525907397,-1.31887661344409,-3.085203564399481
1684115849161744600,11.70274462890625,-6.729229929083585,-1.8411328933537006,-5.505809247356653
1684115849181873700,11.722873779296876,-4.833399815380573,-2.185540789541602,-3.66924965326786
1684115849202002400,11.74300244140625,-4.396450998139382,-2.6035844153046606,-0.2662671102784574
1684115849222131500,11.76313134765625,-5.169772289150953,-1.9130583118796347,-0.40836379713937637
1684115849242260500,11.783260498046875,-5.458391662621498,-1.4030910201787947,-0.6424312039501965
1684115849262389500,11.803389404296874,-4.33253820567727,-1.0522118821501731,-1.4289018993921576
1684115849282519600,11.82351953125,-1.6908745273470878,-0.7807821284115314,-0.9979840328782796
1684115849302648600,11.843648681640625,0.03390579499946907,-0.6025339317172765,0.14288067684546113
1684115849322777600,11.863777587890626,0.7216203298687934,-1.168987665271759,-0.6635252837747335
1684115849342906400,11.88390625,0.6560393119335174,-1.2443629319906233,-1.584430460886657
1684115849363035400,11.904035400390624,1.4398060091137885,-0.9157768743127583,-1.7532441820204256
1684115849383164400,11.924164306640625,2.1011036799669265,-0.02359422607719898,-0.03821151110306382
1684115849403293700,11.944293701171874,1.6384043353974818,0.7121499062120914,0.7597893170043826
1684115849423422500,11.96442236328125,1.2346832494974136,0.46225744602084157,-1.5601318859323858
1684115849443552500,11.984552490234375,0.8182183442931622,-0.45604397833347315,-1.7152051048748194
1684115849463681500,12.004681640625,0.42840310721397395,0.269364637902379,-0.06690700584203005
1684115849483810300,12.024810302734375,0.1988088272292167,1.341170278316736,2.090577025255561
1684115849503939300,12.044939208984376,0.35107422220930457,1.4745757091999052,0.993937241705507
1684115849524068600,12.065068603515625,0.7578782226860523,1.9825860216140745,0.34863632753789425
1684115849544197600,12.08519775390625,0.07952537213563919,1.57964118078351,1.6312711225166916
1684115849564326400,12.105326416015625,-0.5388438420951366,1.208171674668789,1.9433534969002006
1684115849584456400,12.12545654296875,-0.5918646536648273,0.9568331073224544,1.189632978415489
1684115849604585500,12.14558544921875,-0.11477072690948843,0.45326165413856506,-0.06875336436107754
1684115849624714500,12.165714599609375,0.3625847733914852,0.5746025532186031,-0.10826748249530792
1684115849644843500,12.185843505859374,0.2791391590721905,0.19873218179643154,0.41956352880671616
1684115849664972500,12.20597265625,-0.16887538819313047,-0.14429156655669212,-0.6072255966648459
1684115849685101600,12.2261015625,-0.03879997851550579,-0.46010640546679493,-1.1721285936459898
1684115849705230600,12.246230712890625,0.9410440020382403,0.21469664364755153,-0.07270283263921737
1684115849725359400,12.266359375,1.0218214200615883,0.18298165495693683,0.851378928682208
1684115849745489700,12.28648974609375,1.4210465097166598,0.19833353786766528,0.8688700155787169
1684115849765618700,12.30661865234375,0.7016957322150469,-0.06309329277276993,-0.23407880498766898
1684115849785747500,12.32674755859375,0.3705962304115295,0.09563070376217364,-0.4645563706129789
1684115849805876500,12.34687646484375,-0.014361118307709694,0.37474633582830424,0.24332594128251075
1684115849826005500,12.367005615234374,-0.5334016510412096,0.26389175944924353,1.0857513097889722
1684115849846134500,12.387134521484375,-0.5247650478601456,-0.12873568550646305,-0.3320975729301572
1684115849866263300,12.40726318359375,-0.3046352732479572,-0.39502982992231844,-1.3762956599727272
1684115849886393300,12.427393310546876,-0.2909489854618907,0.011869301491975784,-0.4047856463916599
1684115849906522600,12.447522705078125,-0.09952741893976927,0.9120955554515123,0.8314207210198045
1684115849926651400,12.4676513671875,-0.6172448863759636,1.248067631727457,1.4945286561653017
1684115849946780400,12.487780517578125,-0.7788906155765056,1.4798533573418855,0.7303387661144137
1684115849966909400,12.507909423828124,-0.6695853144660592,1.2433616459935903,0.043619946017861365
1684115849987038500,12.52803857421875,-0.1522305428624153,1.0621744732379912,0.05785334629267454
1684115850007167200,12.548167236328124,0.12521511016488074,1.768861437869072,0.8992463030114769
1684115850027297500,12.568297607421876,-0.4883016955986619,2.3309078763753175,0.9780188109531998
1684115850047426600,12.588426513671875,-1.8729665399879216,1.6546435225367546,-0.687155750209093
1684115850067555300,12.608555419921874,-1.9242191728413103,0.6237035609960556,-2.070186271394789
1684115850087684400,12.628684326171875,-1.5343801895603537,0.4594663539975881,-1.0165350040912629
1684115850107813400,12.6488134765625,-3.474164888063073,0.6672679774343967,0.4143628914237022
1684115850127942400,12.6689423828125,-5.331718170341849,0.7461556361883879,0.7679691163286566
1684115850148071400,12.689071533203125,-5.558285284525156,-0.3299555924654007,-0.6622478111848235
1684115850168200400,12.709200439453125,-4.200847469757497,-0.6151040749549865,-0.14854747043550012
1684115850188330500,12.72933056640625,-2.4686510442018506,0.00507248095870018,1.3021654248788952
1684115850208459300,12.749459228515626,-0.05410802228450775,0.09155424810349941,2.913535038356483
1684115850228588300,12.76958837890625,1.86161161775887,-0.5204372477889061,1.6693702592864632
1684115850248717300,12.78971728515625,1.9439213599160312,-1.2149106275349855,-1.115139170706272
1684115850268846600,12.8098466796875,0.7206827567577362,-0.9055757982939481,-1.7968112288072704
1684115850288975400,12.829975341796874,-1.4220432656690478,0.5226584309697151,-0.5816020567171275
1684115850309104400,12.8501044921875,-2.6854227405577897,1.2994284011304378,-0.4411211344897747
1684115850329234400,12.870234375,-3.6655540136203166,1.4623188696950673,0.0779025932393968
1684115850349363200,12.89036328125,-3.794968621301651,1.619724184846878,-0.68971654060781
1684115850369492500,12.910492431640625,-3.021324381946027,1.9763041648656128,-1.011841439447552
1684115850389621500,12.93062158203125,-1.951424575152993,2.1236849296092988,0.4624783952951431
1684115850409750500,12.95075048828125,1.1412503480404614,1.8023375910133121,2.0307576395869256
1684115850429879600,12.970879638671875,1.0697373097077012,1.7323960397809743,1.278934333025664
1684115850450008300,12.99100830078125,-1.3714400366351007,1.9909990451723336,-0.05612944510951638
1684115850470137300,13.011137451171875,-2.927081917671859,1.684962088432908,-0.8885710336096584
1684115850490267400,13.031267333984376,-1.4773893053159117,1.4361802198320626,0.2452018181569874
1684115850510396400,13.051396484375,0.5212254755571484,0.894165931007266,1.1784208256579936
1684115850530525400,13.071525390625,2.8283438955441116,0.7027718370139598,1.313334615277499
1684115850550654500,13.091654541015625,2.73422008921355,0.21815993584394452,-0.5093566124565899
1684115850570783500,13.111783447265625,1.505984700681269,-0.6791776109367609,-1.6646147353224456
1684115850590912300,13.131912353515625,0.3092582568734884,-0.030339024162292477,-0.8830681984096765
1684115850611041300,13.152041259765625,-0.11840747597664594,0.670741791024804,0.24343948465958237
1684115850631170600,13.172170654296876,-0.07293138069808483,0.9762532625854015,0.6467123884007334
1684115850651300400,13.19230029296875,-0.17834814993739126,-0.08877601556181908,-0.8904828585803508
1684115850671429400,13.212429443359374,0.06843026988655328,-0.7100742689818144,-0.9165559689264744
1684115850691558400,13.232558349609375,0.9725272277995943,0.033597733697295185,-0.04824219899103045
1684115850711687400,13.2526875,0.36880613212436436,0.8398024726569652,0.16648535125143826
1684115850731816400,13.27281640625,-0.19417875627577302,0.9864040697216987,0.20730039591640234
1684115850751945500,13.292945556640625,-0.06733429134339093,-0.7126742223471403,-2.2671426756903528
1684115850772074500,13.313074462890626,1.4922747397586702,-2.0112702643066642,-0.9523007976550608
1684115850792203500,13.33320361328125,0.0835422065615654,-1.1929203295230866,-1.1549278679981827
1684115850812333800,13.353333740234374,-4.404491681253909,0.04004091848731041,-1.9826079411849378
1684115850832462800,13.373462890625,-3.2060525883093476,-0.15688509066998957,0.04022263172976672
1684115850852591900,13.393591796875,-2.155180138069391,-1.6663170091956854,0.04269289430081844
1684115850872721000,13.413720947265626,-0.39215105961561203,-2.0241782611966133,-0.236906137368083
1684115850892850000,13.433849853515625,0.6835197317942977,-1.685221616151929,-0.326045689012669
1684115850912979000,13.45397900390625,-1.419256557559967,-1.4218436514437198,-0.3589771042883396
1684115850933108000,13.47410791015625,-4.451681010191142,-2.198825218528509,-2.2498279682740567
1684115850953236700,13.49423681640625,-6.141074651330709,-1.2345242595434187,-1.1185554088905454
1684115850973367000,13.514366943359375,-4.393891961306333,-0.2821002008348703,0.9176903067186474
1684115850993496000,13.53449609375,-1.7378677491903305,-0.5481657971918582,-0.10988923847824335
1684115851013624800,13.554624755859376,0.8397311609864234,-0.9094108464121818,-1.7462211515158415
1684115851033753900,13.57475390625,2.0587838567622003,-0.7728811460286379,-2.3034549290433524
1684115851053883000,13.5948828125,2.9928765783578157,0.5318208115905523,-0.10414631091207266
1684115851074012000,13.615011962890625,2.898515748400986,1.6526088018387555,2.6523393861234186
1684115851094140700,13.635140625,2.302330893449485,2.105472396570444,4.363859226614236
1684115851114270000,13.65527001953125,2.222950775003433,1.8577900136440992,1.9428166135445235
1684115851134400000,13.67539990234375,4.863211016276479,0.6157224991142749,2.548690795600414
1684115851154528800,13.69552880859375,6.084076752823591,1.032069842353463,3.2637834772661325
1684115851174657800,13.71565771484375,6.307295141100883,1.539803091391921,2.5490055606380104
1684115851194786800,13.735786865234376,5.384193622988462,2.31986216622591,1.6123150776341557
1684115851214916000,13.755916015625,5.114096579158306,1.7853192361950874,0.928312238498032
1684115851235044900,13.776044921875,6.427691452807188,0.9516595040768384,0.6607873832434416
1684115851255174000,13.796173828125,9.383837260138987,-0.1057324110597372,1.0958359198212624
1684115851275303000,13.816302978515624,9.524262798917293,-0.5971656826823949,1.2994371689587831
1684115851295432700,13.8364326171875,7.054218254530429,-1.0756196457445621,0.46763358610123396
1684115851315561700,13.856561767578125,6.230566121685505,-1.7648562938809393,1.0977899764984846
1684115851335691000,13.87669091796875,4.883024554771184,-2.0900971327841282,1.1140911229580641
1684115851355820000,13.896820068359375,-0.7626970211446285,-0.8902560640871524,-0.3804305189445615
1684115851375948800,13.91694873046875,-5.689579422342777,0.33289924470186233,-1.7600965321332216
1684115851396077800,13.937077880859375,-6.918080768334865,0.49209495040178297,-2.1704491650022564
1684115851416206800,13.957206787109374,-5.408531945431232,-0.7995148859322071,-2.3223345476888118
1684115851436335900,13.9773359375,-3.3802272519543766,-2.341988657838106,-1.1641158214516938
1684115851456466000,13.9974658203125,-1.4581692026697097,-2.5232512339174744,-2.3276082503080366
1684115851476595000,14.017594970703126,-0.7334579210482537,-2.619221544897556,-1.7828730120867489
1684115851496724000,14.037723876953125,-0.15379355439543724,-1.9552841731905937,-0.6869885769486427
1684115851516852700,14.057852783203124,1.0330438019521533,-1.5891069282650947,0.053178413284197444
1684115851536981800,14.077981689453125,1.3837886460766196,-1.1092471900582312,0.09750256204865872
1684115851557110800,14.09811083984375,0.7044076215222478,-0.08641396260559558,0.6909340997040271
1684115851577240000,14.118239990234375,-1.2904568669065832,0.6056628773927688,0.2527586998099461
1684115851597368800,14.138368896484375,-2.0733952965691684,0.5803939961016178,-0.6468517968714237
1684115851617499000,14.158498779296876,-1.3489935192883014,0.41520168033540245,-1.5785039934471248
1684115851637628000,14.1786279296875,-0.08776420817077159,0.37795886813402174,-1.5027590166330336
1684115851657757000,14.1987568359375,-0.6675234135001897,0.5825011975139379,-0.5619409323051572
1684115851677885700,14.2188857421875,-2.0912468873411414,1.4226596440017223,0.49359541809260843
1684115851698015000,14.239014892578124,-1.6665858892649412,0.6688461865365505,-1.3230027534633875
1684115851718144000,14.25914404296875,1.617797600698471,0.024456395864486693,-2.477986443302035
1684115851738273000,14.27927294921875,1.704154864680767,-0.27327275125682354,-1.6466142375990747
1684115851758401800,14.29940185546875,-0.36772038271427154,0.6426327178716659,0.5248366517916322
1684115851778531800,14.31953173828125,-2.2787375441551205,1.310246732264757,1.1234855587691068
1684115851798661000,14.3396611328125,-1.9571040820941328,1.142269754216075,-0.5030009598195553
1684115851818789000,14.3597890625,1.2779866769120096,0.4538993675202131,-1.7561223678052424
1684115851838918100,14.379918212890624,2.738485345442593,0.1927911013096571,-1.2088713473707438
1684115851859047200,14.400047119140625,1.6521218951046466,0.5058627789914608,-0.20363339784145354
1684115851879176200,14.42017626953125,-0.0810518510505557,0.9548165068030356,0.48248424149155617
1684115851899305200,14.44030517578125,-0.5592880797088146,0.9935971960961818,-0.21507424478828907
1684115851919434000,14.46043408203125,0.6791150670945644,1.3580261360496282,-0.5812400915369391
1684115851939564300,14.480564208984376,2.0388626201093194,1.433827519226074,0.12490151417106389
1684115851959693300,14.500693359375,1.4573723532035947,1.654739384126663,0.9562775192663073
1684115851979822000,14.520822021484374,-0.03791881176680326,1.427279705017805,0.6511638148516417
1684115851999951000,14.540951171875,-0.41743192360550163,1.2498814031511545,0.289685504864715
1684115852020080000,14.561080078125,1.6819221362151204,1.2554109802275895,0.20988255789671093
1684115852040209200,14.581209228515625,2.043660083518922,1.2488999908983707,0.800219819331169
1684115852060338200,14.601338134765625,0.5277297428846359,1.6538409739822149,1.7216051811754702
1684115852080467200,14.62146728515625,-1.6183336072713135,1.6087328352332115,1.3812448068127035
1684115852100596200,14.64159619140625,-1.919952455307543,0.9098866472303867,0.36641010383330286
1684115852120726000,14.66172607421875,-0.0781786337018013,0.2947147677361965,0.4900502928316593
1684115852140855000,14.68185498046875,0.26089579250365497,0.29369360799491406,1.3019132036834955
1684115852160984300,14.701984375,-2.7343723571658134,0.8662462429463863,1.359716281093657
1684115852181113300,14.72211328125,-5.364104774683714,0.16712416061162946,0.06222286661379039
1684115852201242000,14.7422421875,-3.4933880594491957,-1.4117115490078924,-1.1560995421260594
1684115852221371100,14.76237109375,-2.7269328548148275,-1.8013842358112335,-0.5999873159743845
1684115852241500200,14.782500244140625,-3.370298270875215,-1.034447677400708,-0.47663580772429703
1684115852261629200,14.802629150390626,-3.47969095800817,-0.6197562846750021,-0.4532903687763959
1684115852281759200,14.82275927734375,-1.0236872139334678,-0.3231751385450363,-0.34695407353937624
1684115852301888300,14.84288818359375,-0.604679711574316,-0.302673617786169,0.6711933341845869
1684115852322017300,14.863017333984375,-1.4320143323242664,0.253829215118289,1.053665003567934
1684115852342146000,14.88314599609375,-1.5861369725435972,0.20514847857952118,0.6462807189851999
1684115852362275000,14.903275146484376,0.19799597647637127,-0.386017086905241,0.22154738632515072
1684115852382404000,14.923404052734375,1.0652177864566446,-0.4542869055330753,0.42050753165856003
1684115852402533000,14.943533203125,0.8556605515241622,0.19438976867794988,0.8359566108837724
1684115852422662100,14.963662109375,-1.681593781043589,0.5511690706610679,-0.1450489607952535
1684115852442791200,14.983791259765624,-2.831802803826332,0.42999008414447304,-1.5525743101596832
1684115852462921200,15.003921142578125,-2.0760130778521297,-0.22573300144672392,-1.6226061700239776
1684115852483050000,15.024050048828125,0.3944916313923895,0.10500234321951865,0.9459493828017264
1684115852503179000,15.044178955078126,1.1630879397086797,0.12627777096033097,1.0289653004668653
1684115852523308300,15.064308349609375,-1.043381509962678,-0.09524608835875988,-1.0183625117793678
1684115852543437300,15.084437255859376,-2.914655274558067,-0.09464110820293425,-1.6787787236228584
1684115852563566000,15.104566162109375,-2.2326070766210555,1.046033485776186,-0.6870557969659566
1684115852583695000,15.124695068359374,0.2121967896558344,0.7902507985025644,1.039263260988891
1684115852603824000,15.14482421875,1.4209144077695905,0.9628238721698522,1.2707529262661934
1684115852623954200,15.1649541015625,-2.4737667797803877,1.2273925079673529,-2.230740698227286
1684115852644083200,15.185083251953126,-4.488449190618097,1.2906617418289184,-1.7108637146696448
1684115852664212200,15.205212158203125,-2.945960221143067,1.8636229575812815,0.5144122884109616
1684115852684341200,15.22534130859375,0.23335765110626816,1.3356839558601379,0.4970104872331023
1684115852704470300,15.24547021484375,-0.3562321894943714,0.6046048927724361,-1.7138909535363316
1684115852724599000,15.26559912109375,-2.5961136410325762,0.6204734930336475,-2.258518931990862
1684115852744728000,15.28572802734375,-3.4779257019013166,0.9527285946130752,-0.2886404162585735
1684115852764857000,15.305857177734374,-0.1353869600892067,0.8421428983032703,0.0556590511187911
1684115852784987100,15.325987060546876,1.4254323235854505,0.30982699667215347,-0.17191661905255168
1684115852805117000,15.346116943359375,0.08770648663416504,0.34330373433828354,-2.202527287916839
1684115852825246000,15.366245849609374,-3.0350328815639016,0.4467231922805309,-2.178968425413966
1684115852845374700,15.386374755859375,-1.7095079161465168,0.5979015957415104,-0.5660746711090207
1684115852865503700,15.406503662109374,0.81318466097489,0.6910171018123626,0.7240551558002829
1684115852885633000,15.426633056640625,1.5814165198929606,0.979553473174572,1.7656933292269705
1684115852905762000,15.446761962890625,0.3391162195205688,0.8808359093129634,-0.6220055249065161
1684115852925890800,15.466890869140625,0.35176067010350526,-1.2521440873861311,-2.4860145591959357
1684115852946019800,15.487019775390625,4.07938294429779,-1.191255611181259,-1.6317057145416736
1684115852966150000,15.50714990234375,3.887668824569881,-0.9284960706323385,0.9707357412729412
1684115852986278700,15.527278564453125,-0.2663765620023012,-0.816290664166212,1.8574571284279227
1684115853006408000,15.547407958984374,-4.831382045817375,-1.836989802199602,-1.0123165096133946
1684115853026537000,15.567536865234375,-2.6211492980897426,-2.5457564957141874,-2.310262855492532
1684115853046666000,15.587666015625,2.552321845579147,-2.1472698033362625,-0.9616370004728436
1684115853066794800,15.607794677734375,2.5002011977195737,-2.289656413054466,0.0843348182439804
1684115853086923800,15.627923828125,-1.2056792733311652,-2.037660843104124,-0.5099027020320296
1684115853107052800,15.648052734375,-5.022921685761213,-1.6834510993480682,-3.3696433140978215
1684115853127181800,15.668181884765625,-5.183607337757945,-1.1105576881349086,-3.746730952355265
1684115853147311900,15.688311767578124,-1.715393467053771,-0.5594996766328811,-0.48306554851084943
1684115853167441000,15.70844091796875,-1.8466472728610037,-0.7223901451975107,0.2845767835488543
1684115853187570000,15.72856982421875,-3.645599897611141,-0.7788000146836042,0.48500057169403876
1684115853207699000,15.748698974609376,-1.9944483088433742,-0.1394160694748163,-0.7067857488304377
1684115853227827700,15.76882763671875,0.083707041734457,-0.4635585917472839,-2.1058125883102417
1684115853247957000,15.78895703125,3.1877099991500377,-0.9018056321054696,0.10634093487951904
1684115853268086000,15.8090859375,5.325889902579784,-0.2416144611895084,2.7224714914917945
1684115853288215000,15.829215087890624,4.098137913650274,0.5977414367437363,1.4465812023371458
1684115853308344800,15.8493447265625,2.8831355161786076,1.7301590745091437,2.286075924219191
1684115853328473900,15.869473876953125,4.086701158356666,3.950540875807404,6.131296184638142
1684115853348603000,15.889602783203125,4.436670780324936,5.507551707109808,7.443570038816333
1684115853368732000,15.90973193359375,2.6113348833009598,5.48848869472146,6.900363325336575
1684115853388861000,15.92986083984375,2.0299159280657766,5.07824200644493,8.314802838003635
1684115853408990000,15.949989990234375,1.8110417064726352,4.430348591566085,5.46396390979588
1684115853429119000,15.970118896484376,3.4674075227573513,3.3098236361682414,2.868168248671293
1684115853449247700,15.990247802734375,7.10755587696433,2.1868471959650515,3.9526252808660267
1684115853469376800,16.010376708984374,6.299918474853039,1.6000047543764113,5.351465073341131
1684115853489505800,16.030505859375,3.854702082252502,1.0500737010776997,3.9608953888222573
1684115853509635000,16.050635009765625,3.907811741149425,-0.9347147990167141,2.664718390703201
1684115853529764900,16.070764892578126,6.871206788957118,-2.199452410516143,3.212256411385536
1684115853549894000,16.090893798828127,3.6678164055943485,-1.830003596574068,1.8917302771687508
1684115853570023000,16.11102294921875,-1.87819158115983,-0.9856734173595905,-3.7853850926592942
1684115853590151700,16.131151611328125,-4.011926780140399,-1.8393255516707896,-7.050867775058746
1684115853610281000,16.151281005859374,-2.980193622395396,-3.149244951677322,-5.559110629433393
1684115853630410000,16.171409912109375,-2.9297184036552903,-3.2537387608528134,-2.125219007308781
1684115853650539000,16.1915390625,-5.214842433977127,-2.090359583112597,0.8778244525372981
1684115853670667800,16.211667724609374,-4.818252515131235,-0.743811118888855,1.5128981333315372
1684115853690796800,16.231796875,-2.252803476953506,-0.7145055294275283,1.5095985072642564
1684115853710926800,16.2519267578125,0.6524247016329318,-0.5662783769875764,1.6704796818330883
1684115853731055900,16.272055908203125,2.7513421966671943,0.1442798761188984,2.138881621958315
1684115853751185000,16.292184814453126,2.9407623602390287,1.084469307154417,1.941506992250681
1684115853771314000,16.31231396484375,0.35995099082179366,1.0686024604588746,0.8467711426258087
1684115853791443000,16.33244287109375,-1.1712019803203642,1.7100515215039251,0.2082715790361166
1684115853811571700,16.35257177734375,-1.990708099401742,1.6951181562662123,-1.0215098698943852
1684115853831700500,16.372700439453126,-2.116841201194376,1.74286658039093,-1.2491951744526624
1684115853851830500,16.39283056640625,-1.9218097736120223,1.6487094563126563,-0.05286445196419954
1684115853871959600,16.41295947265625,-0.7378267837822436,1.979655228859186,1.2646557784348726
1684115853892088600,16.433088623046874,0.11750877357125282,1.6610013671308754,1.0496461233153938
1684115853912217600,16.453217529296875,-0.47067573027610776,0.4891466219902038,-0.612687953723967
1684115853932346600,16.4733466796875,-0.7560965269010513,-0.7197445991247892,-2.8680598198607563
1684115853952475600,16.4934755859375,0.5329770689535885,-0.4476940831393003,-1.8697502082899211
1684115853972604400,16.5136044921875,1.4298539394199847,0.2667594238400459,0.4109177194058895
1684115853992733400,16.5337333984375,0.8057225084006786,0.4483949248850345,1.1575965026855468
1684115854012862500,16.553862548828125,-0.7152071018256246,0.20299685350358485,-0.044674788833037014
1684115854032992500,16.573992431640626,-1.6336638628721236,-0.14092179786264897,-1.3699049360223114
1684115854053121500,16.59412158203125,-0.02458842474631965,0.3101934918969869,-0.9462542840324342
1684115854073250600,16.61425048828125,1.5967384460568428,0.9108850106179713,0.16685001984536646
1684115854093379600,16.634379638671874,0.544075459138304,1.367187347626686,1.0818010377932339
1684115854113508400,16.65450830078125,-1.2990132444582878,1.0617325746893882,0.18988178973421455
1684115854133637600,16.6746376953125,-1.4616576293073593,0.09357026410102844,-0.5314582618884742
1684115854153766700,16.6947666015625,-0.04531082171425223,-0.05811024366319179,-0.45789683965854344
1684115854173895700,16.714895751953126,1.4262673131048678,0.46375616014599796,0.6863795051395892
1684115854194024400,16.7350244140625,0.8106395065367221,0.3890940101325512,0.04849485857784748
1684115854214154500,16.755154541015624,-0.81309595977813,0.29037177009582515,-1.2041754446394741
1684115854234283500,16.775283447265625,-1.1211419182524085,0.23928163432776928,-0.9037431760393082
1684115854254412500,16.79541259765625,-0.4796911036416888,0.8196908279985189,0.3335040056619793
1684115854274541600,16.81554150390625,-0.4549620283156633,0.8425076399624347,-0.06951777286231517
1684115854294670600,16.835670654296877,-2.4413889432668685,0.790229171192646,-0.7042965623632073
1684115854314799600,16.855799560546874,-4.2302538892447945,0.12246493467390536,-0.3747816994026303
1684115854334928600,16.8759287109375,-4.243526920054853,-0.9192132785022258,-3.731005559957027
1684115854355057400,16.896057373046876,-1.6636325924172997,-1.2611141603052616,-5.8501920091032975
1684115854375186400,16.9161865234375,1.7484905577525496,0.3503554064154625,-1.438298234899342
1684115854395316500,16.93631640625,3.053137862575054,1.815633710438013,1.6070488276690245
1684115854415445500,16.956445556640624,2.038624719700217,1.3683236581802367,1.9798034051582216
1684115854435574500,16.976574462890625,-0.025554712495207785,-0.1287105510652065,-0.7244318801581859
1684115854455703600,16.99670361328125,-3.4055490324765443,-1.5122878924787044,-2.879071043218672
1684115854475832600,17.01683251953125,-3.965470733913779,-1.324096393918991,-2.632156722055375
1684115854495961600,17.036961669921876,-2.2993162218034264,-0.7025345211267471,-1.4045093625441192
1684115854516090600,17.057090576171873,-0.24705723676532507,-0.22371172475218773,-0.6845511206686496
1684115854536219600,17.0772197265625,0.30317659887224435,0.018721067082881928,-0.6013634266331791
1684115854556348700,17.0973486328125,-0.6608475889980793,0.5791255836009979,-0.09238193109929561
1684115854576478500,17.117478515625,-1.7822727081060408,0.9967179584652185,0.20940555150210857
1684115854596607500,17.137607421875,-1.780029020832479,1.108345272782445,0.8410759997241198
1684115854616736800,17.15773681640625,-0.8652458337321877,0.3521142327815294,0.7355522629790008
1684115854636865500,17.177865478515624,-0.5112950331732631,0.17778233274817465,0.5619296802587807
1684115854656994600,17.19799462890625,-0.5910121284887194,-0.1507791750103235,0.29869141628220675
1684115854677123600,17.21812353515625,-1.0313653473459183,0.0553518848657608,0.8311695227377116
1684115854697252600,17.238252685546875,-1.2546446720302105,0.7227355976343155,1.2069991237580775
1684115854717381400,17.25838134765625,-0.8531573365315794,0.4331342273890972,0.8916365586601197
1684115854737510400,17.278510498046874,-0.7351362295240164,-0.4857148939758539,-0.6923527343302964
1684115854757639700,17.2986396484375,-1.360842947036028,-0.5782979006052017,-0.4266618165045976
1684115854777769500,17.31876953125,-1.8962731812953948,-0.2990577653765678,0.20922055032402276
1684115854797898500,17.3388984375,-1.074795469880104,0.3365729647785425,0.2885626748472452
1684115854818027300,17.35902734375,-1.002007881566882,1.2290695012688635,-0.17469518038779497
1684115854838156300,17.37915625,-1.1267875229239463,0.5743424409776926,-1.5252362213790416
1684115854858285300,17.399285400390625,-1.1341114360712468,0.2339081245958805,-0.752272000176832
1684115854878414300,17.419414306640626,-2.086124722021818,1.5048650490015745,0.9577774024352431
1684115854898543400,17.43954345703125,-2.078123055743426,2.641301274758577,1.7220865349516272
1684115854918672400,17.45967236328125,-2.1035960813045502,2.4426193618446588,-0.2907703409593552
1684115854938801400,17.479801513671877,-0.7076907348461449,-0.03152501907646656,-2.6607316591545938
1684115854958931200,17.49993115234375,0.5671382817525417,0.58736500415802,-1.2743775465041398
1684115854979060500,17.520060546875,-0.18345329105667768,1.5195517460018395,0.5190809378091246
1684115854999189500,17.540189453125,-0.7445752351291477,1.75942783909142,0.9320875923182814
1684115855019318300,17.560318359375,0.4347646050699055,1.0367220520734786,-1.7531860220924018
1684115855039447300,17.580447265625,1.8739432760655879,-0.12978022612333298,-2.2382076731070875
1684115855059576300,17.600576416015624,2.510930681526661,-0.09105565093159675,-0.7308569447696208
1684115855079705300,17.620705322265625,0.6598375351727008,0.027652561557292937,-0.6111167588844895
1684115855099834000,17.640834228515626,-0.6255459739923477,-0.3278127352178097,-2.0173107135146857
1684115855119963400,17.66096337890625,-1.8984750752538442,-0.6353980904430151,-2.5136168518707156
1684115855140092400,17.681092529296876,-1.1837684702962636,-1.0613970591247082,-1.2020862172752618
1684115855160222200,17.70122216796875,0.807648215766251,-1.3589859209924935,-0.2083322962474078
1684115855180351200,17.721351318359375,0.7729138792544603,-1.1638351048141717,0.19778788668364286
1684115855200480300,17.741480224609376,-0.3256619869247079,-0.5496516518354415,-0.20537523654010145
1684115855220609300,17.761609375,-2.3694386825606224,-1.3835820175886153,-1.6369874543368816
1684115855240738300,17.78173828125,-1.9842913642272353,-1.5653782621532677,-1.9870114368408918
1684115855260867300,17.801867431640623,-0.6011982991993426,-1.3567816889464854,-1.2764555218219755
1684115855280996400,17.821996337890624,-2.0117802596554157,-1.1782394777417182,-1.6699790388345717
1684115855301125400,17.84212548828125,-5.533424399513006,-1.402532801774144,-2.816347460541129
1684115855321254100,17.862254150390626,-5.878206974232197,-1.9644471383333204,-2.8646760226413606
1684115855341383200,17.882383056640624,-2.616931388133764,-1.6729244446367024,-1.8234496448859572
1684115855361513500,17.902513427734377,-1.0196060820996762,-1.5264613792598247,0.007955635179579257
1684115855381642200,17.922642333984374,-1.5193097539395093,-0.6676034929990768,1.3903575030729174
1684115855401771300,17.942771240234375,-1.4056383665740488,-0.045189387291669846,0.2749360082939267
1684115855421900300,17.962900390625,1.1348731411587447,-0.19216507836580277,-0.9831726865850389
1684115855442029300,17.983029296875,4.111288487124443,-0.1621171461045742,0.7441228151865303
1684115855462158000,18.003157958984374,5.865878238534927,0.6946808850169182,2.492110245722532
1684115855482287400,18.023287353515624,5.656444045460224,2.2434482041090726,4.650504669663309
1684115855502416400,18.04341650390625,3.6036838329017162,0.9609849663048982,5.113110490730405
1684115855522545400,18.06354541015625,1.7917437162846326,3.1214655488699674,4.092178128463029
1684115855542675200,18.08367529296875,1.06027477709651,2.879261305093765,2.992188011571765
1684115855562804200,18.10380419921875,3.0438848810613153,3.5732501161932944,2.473115037873387
1684115855582933200,18.123933349609374,5.666603035902977,4.030571274855733,3.2898020078808066
1684115855603062300,18.144062255859374,5.532436557519436,3.685650752970576,3.0784482449203727
1684115855623191300,18.16419140625,4.20350032235384,3.4250445910632608,1.7416271017238496
1684115855643320300,18.1843203125,4.3686803631603714,3.4019758501648902,1.8786030845701693
1684115855663449300,18.204449462890626,5.74824671536684,3.41758667627275,2.659828280574083
1684115855683578400,18.224578369140627,8.037864549976586,2.4429221441835165,2.9549370160639286
1684115855703707100,18.24470703125,10.49175875455141,0.8975158259570598,3.737835698238015
1684115855723836200,18.264836181640625,8.919806374704837,-0.5681324804216623,4.044902290286124
1684115855743966500,18.284966552734375,2.6058523602366446,-2.903752187749743,2.4616987408459186
1684115855764095200,18.30509521484375,-0.3856477056035772,-3.6959143728315826,-0.3507829841777682
1684115855784224300,18.325224365234376,-2.6377345221877095,-4.483526055002212,-3.249145880104601
1684115855804353300,18.345353271484374,-5.412233722558617,-4.45641183810532,-5.451865475723147
1684115855824483000,18.365483154296875,-6.413842375674843,-3.464499818617105,-7.01281481551826
1684115855844612000,18.385612060546876,-6.285030702322721,-2.7946763114809987,-7.864019556677341
1684115855864741000,18.4057412109375,-2.9164602781534192,-1.765634877038002,-4.72099245660156
1684115855884870400,18.425870361328126,0.2465174308001995,-0.5305471383929252,-0.8187336734041571
1684115855904999200,18.445999267578124,0.991636709678173,1.2085171271055937,2.2752783436119555
1684115855925128200,18.466128173828125,-0.03794138892479241,2.4633926852822303,3.474549503466487
1684115855945258200,18.48625830078125,0.4076280302107334,3.23293153514564,2.8056881193608043
1684115855965387000,18.506386962890623,0.6458470768082887,2.9156121368914842,3.4520597314998507
1684115855985516000,18.52651611328125,0.7699759261064231,2.064408564776182,2.6847067012429235
1684115856005645300,18.546645263671873,1.0755449730731546,0.8317769871115684,1.3087576627507804
1684115856025774300,18.5667744140625,1.2945736545756459,-0.21961948700249193,0.43356962313167746
1684115856045903000,18.586903076171875,-0.5046738614678382,1.3692729217290878,-2.7686510588645934
1684115856066032000,18.6070322265625,-1.9253312257364392,1.0935153679192064,0.44144031997416167
1684115856086161200,18.6271611328125,-3.428696683830023,0.8619897545456886,0.3981108448028564
1684115856106290200,18.647290283203127,-3.0565538084983825,0.22311258981525897,-1.5561042378515004
1684115856126419000,18.6674189453125,-0.8893959401264786,-0.009445873737335204,-2.723451442439854
1684115856146549200,18.68754931640625,0.7914718647301197,-0.46658875322341914,-1.3955936501607298
1684115856166678300,18.70767822265625,0.28341069891154763,-0.7987953394860029,-0.3581450373783707
1684115856186807000,18.72780712890625,-1.2514520134687424,-0.6180623402386903,-0.8643176129713654
1684115856206936000,18.74793603515625,-1.7446784521184862,-0.7377250769734383,-1.6399124018728732
1684115856227065000,18.768065185546874,0.14688640535548328,-0.6678074911385774,-1.3022843750834465
1684115856247194400,18.7881943359375,1.9772154344916342,-0.5046703543365001,-0.07944061646163462
1684115856267323100,18.8083232421875,1.6129051524817943,-0.03318038506805897,0.8847016448304057
1684115856287452200,18.8284521484375,-0.47920068977624175,0.2575976277410984,0.9125725253134965
1684115856307581200,18.848581298828126,-2.023378342990577,0.21882979792952537,-0.04213758023930713
1684115856327710200,18.868710205078123,-0.9008359102904796,0.08614099088311195,-0.8104714564934372
1684115856347840000,18.888840087890625,1.3545432623699307,0.4196843787074089,-0.08942861598534509
1684115856367969300,18.90896923828125,2.328575341774523,0.8189327031075954,0.6118441963762045
1684115856388098300,18.929098388671875,1.1761860523432492,0.755581051659584,0.40624066750556226
1684115856408227300,18.949227294921876,-0.14328385081887243,0.4097510137140751,-0.9108654291346668
1684115856428356000,18.969356201171873,-0.3332895591937005,0.8789695309191942,-0.263321814074181
1684115856448485000,18.989485107421874,0.6090092652112246,1.7078104645788668,1.174769463543594
1684115856468614100,19.0096142578125,2.528394442024827,1.9800661477476358,2.2412194221436974
1684115856488743200,19.0297431640625,1.8286032282568514,1.1299001019865273,0.08805215826667845
1684115856508872200,19.0498720703125,1.0812168812297285,0.6768465376406908,-0.7569557010136544
1684115856529001200,19.070001220703126,1.8435411235392092,0.4269909023284912,0.11462123543620109
1684115856549131300,19.09013134765625,1.49538541912511,0.4286018446564674,0.6467262707956135
1684115856569260000,19.110260009765625,-0.06078676939606666,0.6887725377559661,-0.6281000423893333
1684115856589389000,19.13038916015625,-1.8916086966156958,0.6290145268857479,-2.836168305559456
1684115856609518300,19.150518310546875,-2.5755498686924576,0.533475593060255,-2.224981988570094
1684115856629647400,19.1706474609375,-0.45596009944230315,1.3549702556103467,0.05161079864129424
1684115856649776000,19.190776123046874,0.2256242803752422,1.2568395517259836,-0.10049363362342119
1684115856669905200,19.2109052734375,-0.8107353681266307,1.2549912935107945,-0.8364911561518907
1684115856690034200,19.2310341796875,-3.6283027258515355,-0.20975451107025145,-2.2515350644528866
1684115856710163200,19.2511630859375,-4.2858401673883195,-0.9536007012724876,-1.7220555552914738
1684115856730292000,19.2712919921875,-2.7850165027320384,-0.7564379607498646,1.677246399489045
1684115856750422300,19.29142236328125,-0.9264636880218983,-0.790404527759552,2.77205180721879
1684115856770551300,19.31155126953125,-2.1001392188489434,0.13229600833654404,1.6537988884061574
1684115856790680000,19.33168017578125,-3.2931746991842985,-0.2376549099087715,-0.8112544235646725
1684115856810808300,19.351808349609374,-1.115314527273178,-0.31156419572830196,-1.3864908907726405
1684115856830937300,19.371937255859375,0.15731705234646795,-0.1059457615494728,-0.517861844342947
1684115856851066400,19.39206640625,-0.31953882786929605,0.5294704490721226,-0.0721852385058999
1684115856871195400,19.4121953125,-1.5973147846400737,-0.04571194986104965,0.29539807382524014
1684115856891324400,19.432324462890627,-1.8128344351083039,-0.10566519104242324,0.18601152417212724
1684115856911453400,19.452453369140624,-0.2838701331168413,0.023035423150658606,-0.948301425820589
1684115856931582500,19.47258251953125,0.7098869297161698,-0.3328518984287977,-0.20840207354798912
1684115856951711500,19.49271142578125,0.853639274829626,-0.09698679454624652,1.294060444356501
1684115856971841300,19.51284130859375,-0.01243628772497177,0.5266425321698188,2.158995020182431
1684115856991970600,19.532970458984376,-0.705574619475007,0.3167150026202202,1.4079329072520137
1684115857012099600,19.553099609375,-1.1723343453511594,-0.09256605549454688,-1.6205343321859835
1684115857032228400,19.573228271484375,-2.567706169454753,0.2885626748472452,-1.2802328484036027
1684115857052357400,19.593357421875,-2.896622774261236,1.8299743704795837,1.6158175327971576
1684115857072486400,19.613486328125,-1.1915382275149224,2.6405694533526898,3.4488708723306654
1684115857092615400,19.633615478515626,-1.416809456668794,2.2999124341309067,1.5875053382873534
1684115857112744400,19.653744384765623,-2.586149296379089,0.6757283472657203,-3.7686703969627615
1684115857132873500,19.67387353515625,-0.4115899195790291,-0.3111410018801689,-3.71887731526792
1684115857153002500,19.69400244140625,3.8464340201228855,0.6641606590688228,-0.15612988838851452
1684115857173132500,19.714132568359375,3.9318957965701817,1.2200503285109996,1.7086032223917542
1684115857193261300,19.73426123046875,-0.8002337017260491,1.5164239693701267,-1.4404275020129977
1684115857213390300,19.754390380859373,-4.535965851813555,0.9644465049356221,-4.099871897836029
1684115857233519400,19.774519287109374,-4.203893705585599,0.5343798484236002,-3.0411802982777356
1684115857253648600,19.794648681640624,-2.2151988457024094,1.6957681446075439,0.813456025262177
1684115857273777400,19.81477734375,-1.3643161761045455,1.55606741297245,2.5970874545007945
1684115857293906400,19.834906494140625,0.36541912003457544,1.3086089019298552,0.9941890245094894
1684115857314035500,19.855035400390626,0.8327296116612851,0.41013329102993007,-1.3795138913668692
1684115857334164500,19.87516455078125,0.6797557030856609,-0.24403555085659026,-0.049613925735652445
1684115857354293200,19.895293212890625,1.4493915835827589,0.4317009797155857,1.4955746580868958
1684115857374422300,19.91542236328125,1.9573643404655157,0.3618716566860676,1.9894294577680527
1684115857394551600,19.935551513671875,1.5768189629696308,0.8482932376265525,-0.8036066852904856
1684115857414681300,19.955681396484376,-2.140749461656809,-0.6583282996535301,-2.6980288318917154
1684115857434810400,19.975810302734374,-1.6180045214474201,-0.487976993688941,-0.4588195074614137
1684115857454939400,19.995939453125,-0.19926000506281852,-0.3372182769447565,0.5214306427404284
1684115857475068400,20.016068359375,0.03948905675821006,-0.06593874533176422,0.23498232969865201
1684115857495197400,20.036197509765625,-2.603371064814925,-1.0530173533141611,-1.703364006564021
1684115857515326500,20.056326416015626,-2.4787632728934286,-1.4904057310163974,-3.071120678511262
1684115857535455500,20.07645556640625,1.8708114077806473,-2.1137644240975377,-1.5586775954708456
1684115857555584500,20.09658447265625,3.321758404111862,-1.5861252821058034,-0.026265198852121828
1684115857575713300,20.11671337890625,-1.0897440326869487,-1.48368665189445,-0.10684212586730718
1684115857595842300,20.13684228515625,-4.7084454019784925,-1.8252204539507626,-1.3874194037944079
1684115857615971300,20.156971435546875,-1.8057950379908083,-2.8129093027859926,-2.5475784504443406
1684115857636101400,20.177101318359377,3.147994074833393,-4.523618411415815,-2.4178482009425757
1684115857656230400,20.19723046875,0.2574655257940292,-3.945128787630796,-3.577691898033023
1684115857676359400,20.217359375,-4.794685761582851,-1.8518249677598475,-1.0148097877338529
1684115857696488400,20.237488525390624,-4.916217214798927,0.13959201056361198,-0.2772258727967739
1684115857716617500,20.257617431640625,-3.5027205359399316,-0.8347966271936893,-0.3763850429460406
1684115857736746200,20.277746337890626,0.9322714975178241,-1.232964755141735,2.3568369751408693
1684115857756875500,20.29787548828125,3.578966740274429,0.3150286569684744,3.414915703497827
1684115857777004500,20.318004638671876,3.7198598965644836,2.413181085914373,4.014173097762465
1684115857797133600,20.338133544921874,3.3852690455138683,3.5813439907997844,2.9655767757609484
1684115857817263900,20.358263916015623,3.7209342477977274,3.841805775800347,2.5274457629978655
1684115857837393000,20.378392822265624,5.570715727031231,4.666220709711313,2.7827839213743806
1684115857857521700,20.398521728515625,6.612422581779956,6.024851825916767,2.4518568535283207
1684115857877650700,20.418650634765626,8.445071724426747,5.307531823590398,1.6765581249639392
1684115857897779700,20.43877978515625,11.81554184473753,3.484905477786064,1.619940750207007
1684115857917908700,20.45890869140625,12.424455832880735,1.9536942736506462,4.431994605207443
1684115857938037800,20.479037841796874,8.466245445358753,1.9494412923812865,2.534395728266239
1684115857958166800,20.499166748046875,5.208170701128244,2.317016129145026,1.0363108409240842
1684115857978295800,20.5192958984375,1.9896341865599154,0.650765755444765,0.8411044951662421
1684115857998424800,20.5394248046875,-0.08953238688707352,-0.6500602375239134,2.0791098748236894
1684115858018553900,20.559553955078126,-3.9280639633223413,-0.3328986601799726,0.6431254698246717
1684115858038683600,20.57968359375,-8.734685954153537,-1.0836369479835033,-2.6553797767326235
1684115858058813000,20.59981298828125,-6.307927593785524,-2.0227543658733365,-3.1059353867828845
1684115858078941700,20.619941650390626,-0.9351495371721684,-2.300046289643645,-1.2928490227401255
1684115858099070700,20.64007080078125,0.8805673215046524,-2.6274714868485924,0.33393859768696127
1684115858119199700,20.66019970703125,0.012602438072115182,-2.5549171227693557,0.7963111214548348
1684115858139328800,20.680328857421873,-2.431811990495771,-1.634243124064803,-0.3388774057960138
1684115858159457800,20.700457763671874,-2.5831331634283066,-0.9125035517305136,0.018763189191557467
1684115858179586600,20.720586669921875,-0.7999491856962442,-0.555868626654148,1.4176532140165568
1684115858199715800,20.7407158203125,0.24096578802242874,-0.995010570025444,1.6682339487329125
1684115858219844900,20.760844970703126,0.8112346959508955,-0.1360971541851759,0.9663421094238758
1684115858239974000,20.780973876953126,0.19498715004920958,0.6588426789164543,1.0685361172243952
1684115858260103700,20.801103759765624,-1.7257766216412185,0.6580781242847442,1.3230401628643274
1684115858280232700,20.821232666015625,-2.910488802528381,-0.10565817677974701,-0.8770011534556746
1684115858300362000,20.841362060546874,-0.7530442266583443,0.6224649591118097,-0.8542483466386794
1684115858320490800,20.86149072265625,0.7703510430291295,-0.8156295699089765,-2.502380879846215
1684115858340619800,20.881619873046876,1.9700129557669162,-0.616332155445218,-1.4069465265631675
1684115858360748800,20.901748779296874,0.4832138709403574,0.573591914871335,0.23952114217206835
1684115858380877800,20.9218779296875,-2.801882297337055,0.930360110938549,0.32065175754725933
1684115858401006600,20.942006591796876,-3.385731694589555,-0.1498515387713909,-2.8237708885401487
1684115858421135600,20.962135498046877,-0.8306149575948715,-1.1464730511248111,-2.1204206671163437
1684115858441265000,20.982264892578126,0.3699534024633467,-0.1686959399729967,0.20793708638474345
1684115858461394000,21.002393798828123,-0.12147066293954849,0.26188509580194946,1.3753700695604085
1684115858481523700,21.022523681640624,-1.0197674101412295,-0.2087713452517986,-0.4801996376857161
1684115858501652700,21.04265283203125,0.36709026811718937,-1.1390478695601225,-2.2943927939265967
1684115858521781800,21.06278173828125,0.641341070625931,0.23826573528349398,-0.36982363860383627
1684115858541910500,21.08291064453125,0.37246158589199185,1.0271247871667146,2.179399948699027
1684115858562039800,21.103039794921877,-0.28825360889807344,1.7682862683296203,3.071939593678713
1684115858582168800,21.1231689453125,0.043971828195452686,1.4069301599502562,1.3050669915392994
1684115858602297900,21.1432978515625,1.170295679130405,0.5048842893481255,-1.3386207399643957
1684115858622426600,21.163426513671876,0.9350840707205236,0.5717407340466976,-0.7816856531225145
1684115858642555600,21.1835556640625,0.6193723999239504,1.3712626342415808,1.2739483613066374
1684115858662684700,21.2036845703125,0.05794146296754479,1.2682903355449437,1.5945425434477627
1684115858682813700,21.223813720703124,-0.5591985017292201,0.20079671311080455,-0.8346345684997737
1684115858702943000,21.24394287109375,-0.8420842999838292,0.2955775220453739,-1.5336626889407634
1684115858723072800,21.26407275390625,-0.40150340985059735,0.8649994577556848,0.1254185237824917
1684115858743201800,21.284201904296875,-0.5376173690401017,1.5377847373068332,1.112885400430113
1684115858763330800,21.304330810546876,-0.9712450790345668,0.7051964338123798,-0.3152057671010494
1684115858783459600,21.32445947265625,-0.4984492878645658,-0.06994973453879356,-2.55710060428828
1684115858803588900,21.3445888671875,-0.09291662249788642,0.5518973849356175,-0.6625080695562064
1684115858823717600,21.364717529296875,0.4555196621984243,1.7168319754242896,1.4367422376289962
1684115858843846700,21.3848466796875,-0.9170323542665689,2.1578858898967503,1.9400100316911935
1684115858863975400,21.404975341796874,-2.00911513209939,1.6715958263814448,0.6032599079042673
1684115858884104700,21.425104736328127,-0.3734030679931864,1.0882505792587995,0.07418985632658004
1684115858904233700,21.445233642578124,1.723170530796051,-1.1091542510777712,0.4119008852243423
1684115858924362800,21.46536279296875,2.9802526591062546,0.029934535014629362,0.07293781043887138
1684115858944492500,21.485492431640626,0.006641922232508659,-0.6037409694194793,-1.052167458486557
1684115858964621600,21.50562158203125,-1.8799336025215685,-2.6222031910568475,-3.566398642863333
1684115858984750800,21.525750732421876,-0.10413812760561704,-3.238113321697712,-3.1647777441129086
1684115859004879600,21.545879638671874,1.2356570629656314,0.11500994249284267,-0.41776130169034004
1684115859025008600,21.566008544921875,-0.3608572189465165,0.7854851915359496,0.9602984453454613
1684115859045137700,21.5861376953125,-1.8576432986497877,1.725861669576168,0.2889683330386877
1684115859065266700,21.6062666015625,-2.9224469513475895,1.0953519356966017,0.0108054716527462
1684115859085395500,21.6263955078125,-3.0148429109722374,0.23375030368566513,0.933198549234867
1684115859105524500,21.6465244140625,-1.397781223332882,0.6071183368980885,2.55223212146908
1684115859125653800,21.66665380859375,-0.07701017444431782,0.7583616222888231,3.5780911264836788
1684115859145782800,21.68678271484375,-0.22039865468144415,0.6140203713715076,2.422863106495142
1684115859165911600,21.70691162109375,-0.6399798652753234,-1.2444149544388055,-0.3901011413484812
1684115859186041600,21.72704150390625,-0.10183832623064518,-2.2075936313956976,-1.6930618082582949
1684115859206170600,21.747170654296873,-0.43275107329040763,-1.3772943156212567,-0.6123112293660641
1684115859226299600,21.767299560546874,-1.1712307680234313,-0.5607558141738176,0.26970833677351475
1684115859246428700,21.7874287109375,-1.4608724702790379,-0.16056524048745632,-0.24492811578214166
1684115859266557700,21.8075576171875,-1.470350492720306,0.2296422838449478,-2.0325065290808677
1684115859286686700,21.827686767578125,-1.8256687822401523,-0.11597265004515647,-2.5116549041479823
1684115859306815700,21.847815673828126,-1.586551398563385,1.607873588055372,0.5395110738322139
1684115859326944500,21.867944580078124,0.07025193235576152,2.5544588576078415,3.2757086005985734
1684115859347073500,21.888073486328125,0.9808578337714076,2.863218517309427,3.5764372217968106
1684115859367202600,21.90820263671875,-0.1784030949950218,3.0555940235555172,-0.2899681577309966
1684115859387331800,21.928331787109375,-4.253347180062532,-0.818698309829831,-5.586055919504165
1684115859407460600,21.948460693359376,-3.2048890974879263,-0.0957546224027872,-1.4886445665627717
1684115859427590700,21.968590576171874,0.9022282414317131,1.1706535526573658,2.2354159965619442
1684115859447719700,21.9887197265625,3.2406571609616277,1.2200059048473835,2.535613287362456
1684115859467848400,22.008848388671876,2.116257994478941,2.204869174867868,1.5770792213410139
1684115859487977700,22.028977783203125,-1.8714175569802523,0.6680798783391714,-2.959704961118102
1684115859508106800,22.049106689453126,-2.5414801335692405,-0.2743915261536837,-2.6061492973566054
1684115859528235800,22.06923583984375,0.7600586354650557,0.6755863084465265,-0.5800992509387434
1684115859548364500,22.089364501953124,2.109961524683237,1.1169546956956387,0.49401890420168637
1684115859568493600,22.10949365234375,0.7854992200613021,1.7781775477468966,0.3049213967129588
1684115859588622600,22.12962255859375,-1.1447244538918138,0.37599721267223357,-1.7015096108689902
1684115859608751600,22.149751708984375,-0.03441547982096672,-0.2978185789704323,-2.3667034123778343
1684115859628880600,22.169880615234376,0.30223902576118705,0.3483978426069021,-0.5242534450761973
1684115859649009700,22.190009765625,-2.539555887508392,1.571433324408531,0.3179100576236844
1684115859669139700,22.2101396484375,-4.224562984126806,2.209877358418703,1.7218153167948125
1684115859689268500,22.2302685546875,-2.646982827526331,2.141910322129726,1.6820286653295158
1684115859709397500,22.2503974609375,-0.8620552209973334,0.7372901926875114,-0.3539692129984498
1684115859729526500,22.270526611328126,0.3996817473813891,0.22150457009673116,0.7616321683920919
1684115859749655800,22.29065576171875,1.7217153635516762,-0.6305746158093214,0.7883877811096608
1684115859769784600,22.31078466796875,1.9282973820656537,-1.1948562660217283,-0.17622224382460117
1684115859789913600,22.33091357421875,-0.21388445048183202,-2.1482342644542456,-1.3247450670860708
1684115859810042600,22.351042724609375,-2.3541066733941434,-2.9489170251220465,-1.0735479540370405
1684115859830172200,22.371172119140624,-2.3347978695511817,-2.2669921613037585,-2.85881122226119
1684115859850301000,22.391301025390625,-2.254844335131347,-1.9318559513300657,-3.204481101208925
1684115859870430200,22.41143017578125,-1.9351146608650682,-1.4876263294309378,-2.3504285694032907
1684115859890559200,22.431559326171875,-4.168552927613258,-1.4775392351806163,-0.6169423962980508
1684115859910689000,22.45168896484375,-5.6476434838891025,0.20496552322804926,0.47614115607514973
1684115859930818000,22.471818115234374,-4.436610866831243,0.7575181572020053,-2.0266439206577838
1684115859950947000,22.491947021484375,-0.6332179699249565,0.7429518717110156,-2.768001070523262
1684115859971076400,22.512076416015624,2.02642224073112,0.08117781551778316,-0.9008948008708655
1684115859991205000,22.532205078125,2.5888550482064483,-1.010391094508767,2.8526398401498794
1684115860011334100,22.552334228515626,2.159205155801773,-0.7181108604431152,4.072624409948289
1684115860031463200,22.572463134765623,3.1240719319760797,-0.09520926347970962,3.063115066710114
1684115860051592200,22.59259228515625,5.281258149170875,-0.6375239965558052,4.117802983584999
1684115860071721000,22.612720947265625,6.204020644587278,0.12770225080549716,4.075021826478839
1684115860091850000,22.63285009765625,4.591484909939766,1.1513333506375552,3.689256083986163
1684115860111979300,22.652979248046876,3.3482372457146643,1.159656942346692,3.69806424434185
1684115860132108300,22.6731083984375,3.321061069497466,-0.7053869879484176,1.5654147947713732
1684115860152238000,22.693238037109374,6.534781708216666,-1.4112287339270113,0.4202509265489876
1684115860172367000,22.7133671875,8.520079911398888,-1.3935709121614694,1.0451735079459845
1684115860192496000,22.73349609375,7.214192543387413,-0.5824526821970939,2.2264596599072215
1684115860212625200,22.753625244140625,5.33309705747962,0.7824468467533588,2.7871295493632555
1684115860232754200,22.773754150390626,5.332069467997551,0.3437240055769682,1.987032333498448
1684115860252883200,22.79388330078125,3.5646669967651365,-0.3790016551852226,-0.602255114775896
1684115860273012200,22.81401220703125,0.19557167193889616,-0.8320657409250736,-2.8083795504018663
1684115860293141200,22.834141357421874,-1.9348457807958126,-1.0955927587151526,-2.6231381338194013
1684115860313270000,22.85427001953125,-3.916334654822945,-0.48023090960681436,-1.5557085165321827
1684115860333399000,22.87439892578125,-5.480567838594317,0.4023252476274967,-1.3279074766397476
1684115860353528000,22.894528076171873,-4.841264557406306,-0.5497679716914892,-1.5049261315390468
1684115860373657300,22.9146572265625,-1.8372686191409826,-1.6243617815196514,-0.4882821141153574
1684115860393786000,22.9347861328125,0.7115737137593329,-2.2624241227358577,0.5991838906370103
1684115860413916200,22.954916259765625,1.5201526345044374,-1.2272598214983939,1.6489759982943535
1684115860434045200,22.975045166015626,1.6941932965062558,-0.9107856418967246,2.5620921289652583
1684115860454174000,22.995174072265623,1.639513465683162,-0.7044213577866554,1.5761318574883043
1684115860474303200,23.01530322265625,0.4231964784815907,-1.2223065830051898,0.008277487545087933
1684115860494432300,23.035432373046874,-0.39169104088842865,-0.8453618603497743,0.025173019701242444
1684115860514561300,23.055561279296874,-1.3338812903523445,0.24906711528301237,0.7969736770167947
1684115860534690000,23.07568994140625,-1.1300769198581575,0.48715924756526946,1.1744785177730024
1684115860554819000,23.095819091796876,-0.39744945828467604,0.27556056993305683,0.7152450226832181
1684115860574948000,23.115947998046874,-0.35699878995269535,-0.1549064840734005,-0.004313113958761096
1684115860595077000,23.1360771484375,-0.5470198420271277,-0.11397884587943553,-0.6715448510359973
1684115860615206100,23.1562060546875,0.05227086998522281,0.0020937574088573455,-0.5057426597431302
1684115860635335200,23.176335205078125,0.6011842706739902,-0.07584288423061371,-0.08571370538175105
1684115860655464200,23.196464111328126,0.4483925867974758,-0.21512860532402991,0.8720540524423122
1684115860675594000,23.216593994140624,-0.019554595297574997,0.14268705396950243,1.2937883494168518
1684115860695723000,23.236722900390625,-0.293995805811882,0.47057986868619917,-0.49656917320638894
1684115860715852000,23.25685205078125,0.11307459051609038,0.3763736447691917,-0.05825549735277891
1684115860735981300,23.276981201171875,0.1288163495272398,0.156819039696455,1.0515259457126258
1684115860756110000,23.297110107421876,-0.3057853200659156,-0.10590893667042255,0.9151046741396188
1684115860776239000,23.317239013671873,-0.04727437687218189,-0.4221919776141643,-0.9799515325814485
1684115860796368100,23.3373681640625,1.358315474385023,-0.6562696135580539,-2.0792232720702883
1684115860816497000,23.357496826171875,1.8181790110066531,0.16684300558269022,-0.541722612401843
1684115860836626000,23.3776259765625,0.4183165974855423,0.8993173224210739,0.9234335265457629
1684115860856754700,23.397754638671874,-0.8006143716067076,0.32543782278001304,0.00008593385093845427
1684115860876884000,23.417884033203126,-0.04751052371561527,-0.3446721000820398,-0.8119114261686802
1684115860897013000,23.438012939453124,1.7335539776444433,0.18858020561635494,0.19697715482264755
1684115860917142800,23.458142822265625,1.2736433870106936,0.7969248694390058,1.1150149598047137
1684115860937271800,23.478271728515626,-0.910098828676343,1.3486597572892904,0.8467603289708495
1684115860957400800,23.49840087890625,-1.8546558072715997,1.201207680875063,-0.2375873610978946
1684115860977529900,23.51852978515625,-0.9898644393086433,0.9341425520867108,-0.40810500007271766
1684115860997659000,23.538658935546874,0.15300152723491192,1.0637234562456608,-0.18240527984108776
1684115861017788000,23.558787841796875,-0.10326748225092887,1.5903998906850814,0.6286103299990295
1684115861037917000,23.5789169921875,-1.3670762884676455,1.8312644102901219,0.3757950411636382
1684115861058046000,23.5990458984375,-1.3288251760065555,1.3951152189940212,-1.6529140683956443
1684115861078174700,23.6191748046875,-0.21455051317512988,1.0777513970762491,-2.2519125194631515
1684115861098303700,23.6393037109375,-0.08421557577848433,1.9257740010678768,-0.1499054609157145
1684115861118433000,23.65943310546875,-2.108775529769063,2.564371764335036,0.977663275513798
1684115861138562000,23.67956201171875,-3.150632606643438,1.9590239442408084,-0.2185844448663294
1684115861158690800,23.69969091796875,-1.1110089390337468,0.678819299018383,-1.5021172115981578
1684115861178820900,23.71982080078125,-0.26840777556896206,1.2030682140499354,-0.8282111113235354
1684115861198950000,23.739949951171877,-1.2273708806574344,1.4367349311053752,0.7556637615069747
1684115861219078700,23.76007861328125,-1.3848352325201034,1.6854945878744125,0.46828298992067574
1684115861239208000,23.7802080078125,-1.9573264926731586,0.17750819198191164,-2.01630504360348
1684115861259337000,23.8003369140625,-1.491751300406456,-0.050395139241218564,-1.5834528480261563
1684115861279466000,23.820466064453125,-0.6171306123465299,0.5879390046536922,0.6728273651272058
1684115861299594800,23.8405947265625,0.5043330852061509,0.61864101690948,1.010729971074313
1684115861319723800,23.860723876953124,0.07477671630382537,-0.5503904875040054,-0.525230327284336
1684115861339852800,23.880852783203125,-1.3373141874104737,-1.4948492664217947,-1.5003059243924914
1684115861359981800,23.90098193359375,-0.6024801557034254,-1.120685698917508,0.5868531091131269
1684115861380111000,23.921111083984375,0.4018851026445627,-0.7862783877402544,2.1865504049755633
1684115861400239900,23.941239990234376,0.0770019911378622,-0.8296054882913827,2.9251839750960467
1684115861420369000,23.961368896484377,-0.7569687066256999,-1.327151105314493,0.34590894840061664
1684115861440498000,23.981497802734374,-0.08392039222419262,-2.4346616808384653,-3.7632805206179616
1684115861460627700,24.001627685546875,0.901931888833642,-1.8661486766666173,-2.6976585372745987
1684115861480757000,24.021757080078125,0.9518611641287803,-0.0660001201301813,0.5003782101005315
1684115861500886000,24.041885986328126,0.653188598677516,0.8619096750468015,1.7553141201622784
1684115861521015000,24.06201513671875,-0.23414076430797576,1.4596809224069118,0.30681495537459846
1684115861541143800,24.082143798828124,-1.3016878704950212,1.2916612742602824,-2.5461516325116156
1684115861561272800,24.10227294921875,-1.7952102233514189,1.218746260175109,-1.3380699742138384
1684115861581401900,24.12240185546875,-0.15672668523788452,2.951069819241762,2.611508486302197
1684115861601531000,24.14253076171875,-0.14524433723688124,3.599931202369928,4.637072941160202
1684115861621660000,24.162659912109376,-1.1373930880904197,3.890352656826377,0.08643179052323102
1684115861641789000,24.182788818359374,-4.514161431762576,1.7730477836430072,-3.207069364136457
1684115861661918000,24.20291796875,-1.7633935278519988,2.622246445676684,-0.5230098747558891
1684115861682047000,24.223046875,0.5116790640547871,2.5555285326659676,1.6977527425535022
1684115861702175700,24.24317578125,-0.7075918045163154,1.683651005834341,1.0723144667193294
1684115861722305800,24.263305908203126,-4.724183946119249,1.7477333096444605,-3.439290558558702
1684115861742435000,24.28343505859375,-3.9079397514432666,0.030548282998800275,-3.7975136296093464
1684115861762563800,24.303563720703124,1.5325176105588674,0.9606208091676235,-0.23663564986363053
1684115861782692900,24.32369287109375,2.8163676265463233,1.3176321663409472,1.5668592944912612
1684115861802822000,24.34382177734375,-0.11463000326454639,1.6184908436596392,1.69021752474308
1684115861822950100,24.3639501953125,-2.1387302307888865,1.5056763653844594,-1.3723380083881318
1684115861843079200,24.3840791015625,-0.7145698268353938,-0.4105857109725475,-3.7228397891581055
1684115861863208000,24.4042080078125,3.1783897976189848,0.026187749701738355,-1.0262233082823455
1684115861883337000,24.4243369140625,2.695185425159335,0.11783259869813918,0.9050006287544965
1684115861903466000,24.444466064453124,-0.04794833061099052,0.26373276949524876,-0.7996411426603793
1684115861923595000,24.464594970703125,-0.23849662142992017,0.2693991246938705,-3.239804928046465
1684115861943724000,24.48472412109375,-0.44743309411555526,-0.6234615689337253,-1.7422079703517257
1684115861963853000,24.50485302734375,-1.1872715099811553,-0.3987725235819816,0.6585831511974334
1684115861983982000,24.524982177734376,-2.573034963262081,-0.10220657502114772,0.3988546489074826
1684115862004112100,24.545112060546874,-2.460823127055168,0.3531067509502172,-0.7719652002274989
1684115862024241000,24.565240966796875,-2.418862346421182,-0.257654326364398,-0.25618651883415877
1684115862044370000,24.585369873046876,-4.529796223267913,-2.2181156099319455,1.218701251989603
1684115862064499200,24.605499267578125,-4.591296401630342,-3.2155045995265246,0.36485812515094873
1684115862084628200,24.625628173828126,-2.412318039344251,-2.909033927544951,-3.3584552728682753
1684115862104757000,24.645757080078123,-2.141112742011249,-3.643813014194369,-3.8387802904993293
1684115862124886000,24.665885986328124,-4.602475090509653,-5.402482143872976,-3.1750001551806926
1684115862145015000,24.68601513671875,-5.383457709929346,-5.284661235612631,-4.082027029065787
1684115862165144000,24.70614404296875,-2.4456372483611104,-3.6978596616804595,-5.3283600920856
1684115862185272800,24.72627294921875,-2.6779534275904298,-1.9289877024173736,-3.801654090414941
1684115862205402000,24.746402099609377,-0.8420192719236016,0.035198739153146745,-1.0132935379520058
1684115862225531100,24.76653125,1.0654793600022792,1.3407219500273466,1.5910019482314586
1684115862245660200,24.78666015625,3.5409532359614966,3.4352462516039606,4.4768934851199385
1684115862265789000,24.806788818359376,4.332831927926838,4.56353950291574,6.055871818080544
1684115862285918000,24.82691796875,4.616836793339252,4.203607874381542,6.749601101461052
1684115862306048300,24.84704833984375,6.623547202384471,2.9591309606224296,7.112008764719962
1684115862326177000,24.867177001953124,9.002204087406396,3.4252515118122098,6.212071849095821
1684115862346306000,24.88730615234375,9.690947399067879,3.180639037850499,4.9418859090626235
1684115862366435000,24.90743505859375,7.222453006732463,2.6703531817197796,4.733977902641892
1684115862386564000,24.927564208984375,4.617009519557654,1.8052420802831648,3.575115325543284
1684115862406692900,24.94769287109375,6.044690498852729,1.43116852914989,3.0019007195517418
1684115862426822000,24.96782177734375,7.696877860409021,0.7208680501967668,3.9254274773389097
1684115862446951200,24.987951171875,7.5564312788426875,0.06953355495333671,3.9289544824212785
1684115862467080200,25.008080078125,5.32237224984765,-1.2122720957249402,1.7809534422010183
1684115862487209000,25.028208984375,3.096939302639663,-2.1213369051784277,-0.37028044246062636
1684115862507338000,25.048337890625,1.1434449354752898,-1.9015005605548618,-0.8741744786623865
1684115862527467000,25.068467041015627,-1.78142544362694,-1.362670162463188,-1.1449267715308815
1684115862547596000,25.088595947265624,-3.4262086664065716,-0.9277467135697602,-1.2171225314307956
1684115862567725000,25.10872509765625,-3.3084652072966096,-0.8402069618046283,-0.18023031042218207
1684115862587855000,25.128855224609374,-3.8376556703835725,-0.7440081027656793,-0.4491799377828836
1684115862607984000,25.148984130859375,-4.7048365638315675,-0.44947044516205786,-0.3646230012208223
1684115862628113200,25.169113037109376,-3.6830011152446267,-0.5272995347738265,-0.5483586894154548
1684115862648242000,25.189241943359374,-1.156855328929424,-1.3898890087783335,-1.1692419322937726
1684115862668371000,25.209370849609375,0.8886839924648403,-2.043712982749939,-1.2862731514811514
1684115862688500200,25.229500244140624,2.5230741237848995,-1.89115335406363,-0.1467176246598363
1684115862708629200,25.249629150390625,2.153174058943987,-0.7934218297541141,0.9729247026845812
