time,seconds_elapsed,z,y,x
1684116017044506600,0.032506591796875,-0.9641139119803905,1.6217477996289729,1.8765011438548564
1684116017064635400,0.052635498046875,-1.483932735610008,2.5795319240659476,2.681127089190483
1684116017084764700,0.0727646484375,-2.997001549333334,2.4705834735691545,2.436376960323751
1684116017104892700,0.092892578125,-1.9100000933527945,2.2921926535338164,0.2411915596023202
1684116017125021700,0.113021728515625,-0.09599252281188965,2.664213363790512,-1.619763347813487
1684116017145150700,0.133150634765625,1.3034522498190402,3.4719320144444703,-4.061795557419956
1684116017165279700,0.15327978515625,1.0077677602678536,2.197252854645252,-2.49413765989691
1684116017185408500,0.173408447265625,0.5679132847130298,-1.2603724020272493,4.750323765026033
1684116017205536500,0.19353662109375,-0.07758359041810035,0.4961708215385675,9.46324806598425
1684116017225665500,0.21366552734375,0.265119839939475,2.710212313899398,6.883733677574992
1684116017245794600,0.233794677734375,0.4740694643676281,1.6046674854904412,5.0936844902485605
1684116017265923800,0.253923828125,0.7299673024535178,1.3548077585250138,0.18455548014491796
1684116017286052600,0.274052490234375,-0.08926935203671454,0.6533136863619089,-2.091999459274113
1684116017306180600,0.2941806640625,-1.3232172729969023,2.000522660320997,0.47453182118237014
1684116017326309600,0.3143095703125,-2.0901503242760895,3.56186304526031,3.021995413075387
1684116017346438700,0.334438720703125,-1.7874848897963762,3.1735996407330034,0.9233376649558543
1684116017366567700,0.354567626953125,-0.9196014010369777,2.418494974413514,-1.428271638664603
1684116017386696700,0.37469677734375,-0.7447282337337732,2.3558967716813086,-1.7375076837062835
1684116017406824700,0.39482470703125,-0.29686931542158124,3.477253501728177,-0.05924290095493197
1684116017426953500,0.414953369140625,0.9085849169820547,4.000523927116394,1.8363225704625248
1684116017447082500,0.43508251953125,1.8259774097979067,2.609651167997718,0.015745120012015102
1684116017467211800,0.455211669921875,3.0638977415204045,1.4864584546953439,-2.5214362934499976
1684116017487340800,0.4753408203125,3.675219375327229,1.9640590157985687,-2.9526693633928893
1684116017507468800,0.49546875,3.037804099842906,3.14357976552248,-1.0739828383229673
1684116017527597600,0.51559765625,1.9179712183624504,2.4068840315967797,0.35745880867987867
1684116017547726600,0.5357265625,2.8610826743245124,1.8003502165883778,-0.9797530873998999
1684116017567855600,0.555855712890625,3.9132325971543787,2.066615719431639,-1.7499509856939315
1684116017587984600,0.575984619140625,2.498742815604806,1.364710728380084,-2.082284705467522
1684116017608112600,0.596112548828125,0.48056759421527384,0.5768050316989421,-4.715006952451169
1684116017628241700,0.61624169921875,-0.4259796794593334,-0.2258995901852846,-5.763642437419295
1684116017648370400,0.636370361328125,0.7710533460795879,-1.1616729583442211,-4.480384834367037
1684116017668499700,0.656499755859375,0.2580512167274952,-2.8642881923675536,-5.514475953415036
1684116017688628700,0.676628662109375,-1.3530349036335945,-3.0590736823648212,-8.807027552264929
1684116017708756700,0.6967568359375,-2.793718864625692,-4.852050155314803,-12.103227152228355
1684116017728885800,0.7168857421875,-4.268039137759804,-2.9919623861223457,-8.07650144688487
1684116017749014500,0.7370146484375,-6.512798424467444,-1.8080115449965,-9.749427060565353
1684116017769143600,0.7571435546875,-7.941590872135758,-1.7176976523429155,-11.26243566853404
1684116017789272600,0.7772724609375,-6.0978743920296425,-1.4956892243772744,-11.638118408429621
1684116017809400600,0.797400634765625,-3.2433319331288337,-0.7153326279014348,-8.040294991993903
1684116017829529600,0.817529541015625,-4.034891476142406,0.4344283588528633,-6.2772898789376015
1684116017849658600,0.83765869140625,-4.564494611683488,2.206944812098145,-6.123228028994799
1684116017869787600,0.85778759765625,-2.786031232732534,3.543375202411413,-7.95850225944817
1684116017889916700,0.877916748046875,-2.4584569824457168,4.445362036302686,-8.748297130876779
1684116017910044700,0.898044677734375,-2.284468781283498,4.621208432552218,-9.462227490764855
1684116017930173700,0.918173583984375,-1.2169383339703082,5.964821427845955,-5.221786554026603
1684116017950303500,0.938303466796875,0.10008534508347511,6.356171692472696,-3.916105522242188
1684116017970432500,0.9584326171875,2.489695293535292,6.145706402784586,-1.7699477718010543
1684116017990560500,0.978560546875,4.445202754087746,7.952410372313857,0.28226050596311686
1684116018010689500,0.998689453125,2.0897101792931556,10.020568645012379,0.39380788691192864
1684116018030818600,1.018818603515625,-0.9169915107995271,8.74831232844591,1.5708865041807294
1684116018050947300,1.038947265625,-0.27911709337085483,7.73196027970612,2.878341852161288
1684116018071076400,1.059076416015625,1.5179782130748032,8.24052647243738,3.920945071227848
1684116018091204400,1.079204345703125,0.6116390291929245,8.471648181185126,4.265315850275755
1684116018111333600,1.099333740234375,-1.6207807081624865,8.21333860578239,3.068168258446455
1684116018131462700,1.119462646484375,-3.1478827234134075,7.989999805995821,3.0600863665387035
1684116018151591400,1.13959130859375,-1.1580948075965045,5.640067495676875,1.8775941997885703
1684116018171720400,1.159720458984375,0.65505526933223,5.058304549309611,2.7416338726013896
1684116018191848400,1.179848388671875,0.20137948143482207,7.2106900882244105,5.557766229087114
1684116018211977500,1.1999775390625,-1.264160980655253,7.756631779626011,5.385968231445551
1684116018232106500,1.2201064453125,-1.9567846408814191,4.368629509755968,0.465527845993638
1684116018252235500,1.240235595703125,-1.6854244452476501,2.015467131474614,-0.6574044628068805
1684116018272364300,1.2603642578125,-1.375680450683832,3.4369811125725507,1.9107254850178956
1684116018292492300,1.2804921875,-1.6387667389690874,4.667305582338571,4.150832854266464
1684116018312621600,1.30062158203125,-1.402251062223315,4.295626817387342,4.5046661659255625
1684116018332750600,1.32075048828125,-0.2314151387363672,2.0027952814280985,3.7649800180122255
1684116018352879600,1.340879638671875,-3.313151319286227,0.9687766430944204,5.343720158302784
1684116018373008400,1.36100830078125,-10.383331113058327,0.11886778696477412,5.909437978798151
1684116018393136400,1.381136474609375,-10.789126082623005,-2.38163151691854,4.600469595906138
1684116018413265400,1.401265380859375,-5.143635977375507,-4.161149373358488,3.006854250305891
1684116018433394400,1.42139453125,-2.3964736967414617,-7.854399495416879,2.8511604152470826
1684116018453523500,1.4415234375,-8.190916346094012,-11.637177328187226,-1.5853364698156713
1684116018473652500,1.461652587890625,-12.438852607023716,-14.567050045621395,-2.5516870548069477
1684116018493780700,1.48178076171875,-11.569704797416925,-14.449287589550018,-2.9646166985571383
1684116018513909500,1.501909423828125,-9.572641337639093,-11.748716964221,-0.2529807815954089
1684116018534038500,1.52203857421875,-10.349654468905925,-8.022959241789579,4.346465316481888
1684116018554167600,1.54216748046875,-11.117952378797531,-5.24353778258562,5.288191163304448
1684116018574295600,1.562295654296875,-8.458444416218995,-2.5824633013427256,4.919388830572366
1684116018594424600,1.582424560546875,-4.751397823998332,0.472042342454195,5.93321749831438
1684116018614553300,1.60255322265625,-3.387906408280134,2.303795413044095,6.534387740463018
1684116018634682400,1.622682373046875,-4.966264563515782,5.13234769064188,6.0376949408769605
1684116018654811400,1.642811279296875,-4.02380660302639,7.206170564973354,5.008721310973167
1684116018674939400,1.662939453125,-1.3860472386583684,8.68361803021729,4.977963769137859
1684116018695068700,1.683068603515625,0.2697615282654762,9.836476982986927,4.600766825287044
1684116018715197400,1.703197509765625,0.026427403676509857,10.452234553414582,3.6603374480158086
1684116018735326500,1.723326416015625,0.029262627102434633,10.171611439394951,3.1821389210194346
1684116018755455500,1.74345556640625,0.26985008333176375,9.38793358954191,1.3890717010460794
1684116018775583500,1.76358349609375,0.24416794506460426,8.620122001862525,-0.038577056479826566
1684116018795712500,1.78371240234375,-0.03885229322463274,8.116621860349177,-0.2789122915137559
1684116018815841500,1.803841552734375,0.13799772710949182,7.791710107269883,-0.27862149187363683
1684116018835970300,1.82397021484375,1.7034052153572439,8.44759802803397,-0.8364681406024843
1684116018856099600,1.844099609375,2.163666519124806,9.91123733267784,-0.412720750239864
1684116018876227300,1.864227294921875,-1.292553546924889,9.309558556485175,1.1008666074648499
1684116018896356600,1.884356689453125,-2.8871020817220208,8.52281430479884,-0.3823740542277694
1684116018916485600,1.904485595703125,-1.2994172952145338,6.812669259792566,-4.014187126287818
1684116018936614400,1.924614501953125,0.9158329884141683,6.605047669097781,-3.3314290265157815
1684116018956742700,1.94474267578125,-0.6100953068822622,5.524440298068523,-2.547051211699843
1684116018976870700,1.96487060546875,-3.077933281135559,4.5348979303210974,-4.453314748872816
1684116018997000000,1.985,-1.2864368176102638,3.4702293021798134,-3.7159342475533483
1684116019017129000,2.00512890625,1.8839163885474204,3.4030718287080526,-1.6056505051784216
1684116019037258000,2.025258056640625,-1.9593577062398193,2.4943705918699504,-5.148493354278803
1684116019057386000,2.045385986328125,-5.667589124330878,1.082753150886297,-5.722012203913927
1684116019077515000,2.065514892578125,-4.274227471005917,1.1103308936417102,-2.7219299319609997
1684116019097643800,2.085643798828125,-1.313107966914773,1.4984528438717126,-0.9099246411532164
1684116019117772800,2.105772705078125,0.033305472752451895,1.5238754544198512,-4.099794448685646
1684116019137901800,2.12590185546875,-5.472827599731088,-4.271322397214174,-14.567363349354267
1684116019158029800,2.14602978515625,-4.970948921939731,-4.921109078493714,-13.813867871797084
1684116019178158800,2.166158935546875,-4.275498221594095,-4.953149061354995,-10.26353802794218
1684116019198288000,2.186287841796875,-3.196147864888608,-3.3174043005555864,-13.736070346367358
1684116019218417000,2.2064169921875,-3.7295243814885612,-3.718983698251843,-18.485083905577657
1684116019238546000,2.2265458984375,-5.782364673545956,-2.7056466134190558,-17.197309701883793
1684116019258674000,2.246673828125,-9.302474151182174,-0.8717483474940061,-12.463774282312393
1684116019278803000,2.266802978515625,-5.762759224843979,1.0443974090069532,-10.757283668160438
1684116019298931700,2.286931640625,-0.932411782771349,1.0191232670187949,-11.372670651710033
1684116019319060700,2.307060791015625,-0.46661096505522726,0.8018851221948862,-14.785794503355026
1684116019339188700,2.327188720703125,0.03419453054666519,5.54481147044599,-12.289839272642135
1684116019359317800,2.34731787109375,-1.0761614975363016,9.361279391372204,-8.787726054945587
1684116019379447000,2.367447021484375,-2.1058476596236226,11.865546523356437,-4.816310733413696
1684116019399576000,2.387576171875,-1.1734569196403026,13.164370528852938,-1.771504061332345
1684116019419704800,2.407704833984375,-1.2050710783049463,13.922778328371047,2.822249962583184
1684116019439832800,2.427832763671875,-1.1132745458781719,13.549157781702279,4.773812484902143
1684116019459961900,2.4479619140625,-0.6828329185739159,11.27838025664091,2.35180497232303
1684116019480091000,2.4680908203125,1.5312906991124153,8.714672509172559,2.591471075923741
1684116019500220000,2.488219970703125,3.8255908463194963,9.64543886282444,5.640765414813161
1684116019520348700,2.5083486328125,2.86577784640342,10.813348669731615,7.894986941871046
1684116019540476700,2.5284765625,0.3593126198530197,10.435213275986909,6.533360150980949
1684116019560605700,2.548605712890625,-0.23171032229065894,7.080220126271247,3.649531391841173
1684116019580735000,2.56873486328125,2.2993816882550715,4.547123790165782,1.8643118166282773
1684116019600864000,2.588864013671875,2.2132281301513315,5.696570888665319,2.9495921479046343
1684116019620993000,2.608992919921875,0.5636953747570514,8.208798624265194,4.606304001148045
1684116019641121000,2.62912109375,-0.364202145460248,8.486061906462908,6.179336285185814
1684116019661249800,2.649249755859375,-1.1896709723383188,5.86275806068778,4.50929557929188
1684116019681378800,2.66937890625,-1.1416729573667048,3.503541789194941,2.5628157670646905
1684116019701507800,2.6895078125,-1.5152958421230316,4.4647360143363475,3.9245556629404423
1684116019721635800,2.7096357421875,-2.455968672761321,5.478575203472375,5.61174682559967
1684116019741764900,2.729764892578125,-2.0098101286262273,2.7152304343223572,3.5933436406731603
1684116019761894000,2.749893798828125,-2.783881361222267,-0.4051297836542129,2.172103215819597
1684116019782023000,2.77002294921875,-5.102285729855299,-0.7890683107197284,3.5329560997277496
1684116019802152000,2.79015185546875,-6.029799219191074,-1.1397077947735785,4.570300083091855
1684116019822280000,2.810280029296875,-7.404721544983983,-3.388037341183424,4.464409266600012
1684116019842409000,2.830408935546875,-14.545116446232795,-6.398324488547444,5.409961685973405
1684116019862538000,2.8505380859375,-18.147648771011827,-8.047261908397077,8.686551161059736
1684116019882666800,2.870666748046875,-15.208085849690436,-9.915214419615268,9.083003717261553
1684116019902795800,2.890795654296875,-9.391811307758092,-9.744528182607889,5.998036884227394
1684116019922923800,2.910923828125,-9.407741282817721,-7.708869911497831,6.2102528169751166
1684116019943052800,2.931052734375,-13.22847036831975,-5.405244009801745,5.6531128552109
1684116019963182300,2.951182373046875,-9.045569181880355,-4.446557383567095,3.302390271297097
1684116019983311000,2.97131103515625,-4.516079832604527,-4.546272726294398,4.143312980155646
1684116020003439000,2.991439208984375,-7.090759055942296,0.44008068552613255,6.939060427999496
1684116020023568100,3.011568115234375,-7.712366521441936,5.4137891353070735,9.818702841365337
1684116020043697200,3.031697265625,-6.292910057395696,7.628032872241735,11.13063416571617
1684116020063826200,3.051826171875,-2.62471546613872,9.267785699638724,10.365150144201516
1684116020083955000,3.071954833984375,-1.791218815627694,11.636951702737807,9.791030406063795
1684116020104083000,3.0920830078125,-1.074058972299099,13.621653693592547,8.285255256479978
1684116020124212000,3.1122119140625,-0.34359365719556806,14.42768716763854,6.458306371301412
1684116020144341200,3.13234130859375,0.08631985458135605,13.362855457890033,2.5646584723219275
1684116020164470300,3.15247021484375,-2.1933342198967933,10.575345384776591,-1.7325202506825328
1684116020184599000,3.17259912109375,-1.5434709662497044,10.500381621468067,-2.8909035198315975
1684116020204727300,3.192727294921875,-0.6697966191291809,11.427753656506537,0.0025198738664388657
1684116020224856000,3.21285595703125,0.045377603340148925,9.76513608635068,-0.13186258535534143
1684116020244985000,3.232985107421875,-1.1684978359282017,8.28062701215744,-1.3419102830290794
1684116020265114000,3.253114013671875,-0.2692532864823937,7.99011495680809,-1.7673631621353327
1684116020285242000,3.2732421875,1.4609645324766636,10.676886189365387,0.5921466854766011
1684116020305371100,3.29337109375,2.4473703557640314,10.238278499001265,0.5371002132982016
1684116020325500000,3.3135,0.45655835759639735,9.83814871559143,-1.3743272825092077
1684116020345629200,3.333629150390625,-1.2308324192881583,8.507154378852247,-3.2203976322650907
1684116020365758200,3.35375830078125,-1.6988088274776934,8.659151112958789,-3.9665202429667112
1684116020385886200,3.37388623046875,0.38839726004004477,7.378194772586226,-1.9038024077564477
1684116020406015200,3.39401513671875,0.6254191327422857,6.466599567872286,-3.353939256748557
1684116020426144000,3.41414404296875,-0.5348755229860543,5.40129965609014,-2.4835236191630363
1684116020446273000,3.43427294921875,-2.4838217253267763,5.1347243566453455,-1.4412024319082497
1684116020466402000,3.454402099609375,-3.1830069360256195,6.9060244198381895,-3.1894834385633466
1684116020486530000,3.474530029296875,-2.872142997521162,6.596133125758171,-5.965875905334949
1684116020506659000,3.4946591796875,-4.50803739592433,4.850567223280668,-11.704736368197201
1684116020526788400,3.514788330078125,-8.118211759889125,2.343844514837861,-14.58888076915741
1684116020546917000,3.534917236328125,-8.11370977229476,-1.7125579513669014,-14.507930332654714
1684116020567045000,3.555045166015625,-7.463937119540572,-3.795498490394652,-11.980398060417174
1684116020587174100,3.575174072265625,-8.048285990747809,-5.253494528454542,-12.648137162494658
1684116020607303200,3.59530322265625,-7.976309718817472,-4.9920600990295405,-15.829427942252158
1684116020627432200,3.61543212890625,-6.641785454386472,-4.196475538283586,-15.98196477458477
1684116020647561000,3.63556103515625,-3.3116759860366582,-2.4791285990744827,-12.971557800233363
1684116020667689000,3.65568896484375,-2.9574568899303673,0.24137305364906786,-12.221686358392239
1684116020687818000,3.67581787109375,-4.787757423624396,2.590909642648697,-12.743450470870732
1684116020707947000,3.695947021484375,-5.826067621672153,6.556393820565939,-11.723623439496755
1684116020728076300,3.716076171875,-6.30325375675559,10.717625026988982,-8.328173776230216
1684116020748205300,3.736205322265625,-7.879860684409737,12.875737126857041,-5.823806691002845
1684116020768333300,3.756333251953125,-4.361254012551903,14.592238262891769,-4.638293422865868
1684116020788462000,3.776462158203125,-1.407167475837469,15.732148302239178,-1.7655036518737672
1684116020808591000,3.796591064453125,0.3258540023654699,16.166325316679476,1.324126204535365
1684116020828720000,3.81672021484375,2.160439666032791,15.685648416870832,4.059154687522351
1684116020848848100,3.83684814453125,4.344507168151438,14.451654903203249,6.5390066324353215
1684116020868977200,3.85697705078125,3.8306726796284316,12.829397400486469,4.499952581407129
1684116020889106000,3.87710595703125,2.3990289341822266,8.132154360523819,0.032267508006840945
1684116020909235200,3.897235107421875,3.1244623925983905,8.821395684835315,3.1373008313834667
1684116020929364200,3.9173642578125,2.795815544643998,10.612018288135529,3.775988026499748
1684116020949492200,3.9374921875,-0.8039771260380745,10.881810211539268,1.387763979448378
1684116020969621200,3.957621337890625,-2.5827695908129216,10.959175190770626,1.4102493675008416
1684116020989750300,3.977750244140625,-1.821827304381132,10.611472344690561,1.504877031700313
1684116021009879000,3.997879150390625,-3.029439007079601,11.334121433085203,4.141444555935263
1684116021030007000,4.018007080078125,1.652613478013873,8.272697388201951,4.3550610031306745
1684116021050136000,4.038135986328125,3.7485938236176963,8.404913901561498,7.40308663725853
1684116021070265000,4.05826513671875,0.8425573243230581,9.859752644634247,9.472465976184607
1684116021090394000,4.07839404296875,-4.717555175629258,7.926417268401384,7.90175044465661
1684116021110523100,4.098523193359375,-6.004046938297152,4.905255675801635,6.031477966058254
1684116021130651100,4.118651123046875,-2.816760717517137,3.26887027901113,5.397634119319916
1684116021150780200,4.1387802734375,1.1905886717051266,1.8306173445582388,7.651188706901669
1684116021170909200,4.1589091796875,-5.088685659047961,0.8991992489993572,8.92439019536376
1684116021191038200,4.1790380859375,-10.891571727097034,-2.71957050935328,7.67416450881958
1684116021211167000,4.1991669921875,-9.729748546627164,-5.0786605241179466,5.966221942293644
1684116021231295200,4.219295166015625,-6.741187493380904,-6.278664089900255,5.542623605012893
1684116021251424000,4.239424072265625,-7.56000621472001,-7.6909677595824,6.9052195331960915
1684116021271553000,4.259552978515625,-12.07466273652315,-8.60491391133666,7.0990475763380525
1684116021291682000,4.27968212890625,-13.415738322293757,-9.273831409543751,6.9055977188587185
1684116021311810000,4.29981005859375,-13.473116160029171,-9.872133987301588,5.676567965078354
1684116021331939300,4.319939208984375,-14.858448236155509,-9.293066855889558,5.629571236103772
1684116021352068000,4.340068115234375,-13.94767194660902,-7.37167793803811,7.718584665304422
1684116021372197000,4.360197021484375,-12.335629548436403,-4.6165702513575555,9.897533801496028
1684116021392326100,4.380326171875,-11.210069521480799,-1.3005045059293507,10.644496662414074
1684116021412454100,4.4004541015625,-9.479705279788375,2.1949299646556377,11.126341436958313
1684116021432583200,4.420583251953125,-4.427833978396654,4.512248291617632,9.686978495436906
1684116021452712000,4.4407119140625,-1.2571008330106734,7.6144485835254185,8.570669111907481
1684116021472841000,4.460841064453125,-0.5721063524886966,11.923192072117327,7.429577753821015
1684116021492970200,4.48097021484375,-0.0956000163629651,14.11997614020705,5.539430946451425
1684116021513098000,4.501097900390625,0.5226315429627895,14.688027372086047,4.478740866552293
1684116021533227300,4.521227294921875,2.2009283282876013,15.98252357751131,4.665604915900528
1684116021553356300,4.541356201171875,1.591133465656638,16.69003121087551,6.969885774374008
1684116021573485000,4.561485107421875,0.11799129639118909,15.67753876017332,5.531805273878574
1684116021593613000,4.581613037109375,-1.194491524362564,12.220800223207473,1.196179039058089
1684116021613742000,4.6017421875,-0.7484440393865108,9.82388170530796,-1.7686255832865834
1684116021633871000,4.62187109375,0.37569735294282436,9.050141896623373,-1.8730527569666504
1684116021654000000,4.642000244140625,0.4868900752350688,10.984246503663062,-0.5763004431776702
1684116021674129000,4.66212890625,0.20442016430497167,11.376261954200267,-0.063697396145761
1684116021694257000,4.6822568359375,1.1934852699294685,10.275845720851422,-1.179615296139568
1684116021714386200,4.70238623046875,2.0674699981734155,8.5847180955261,-3.1233710902303455
1684116021734515200,4.72251513671875,1.8142840493947265,8.333549039527773,-3.977966058349609
1684116021754644200,4.742644287109375,0.9278753083854914,10.128525161862372,-2.715892405362427
1684116021774773200,4.762773193359375,-0.7191185761809349,11.36808800009489,0.6203630183964968
1684116021794901200,4.7829013671875,-3.639607379198074,9.91204163479805,-0.6652239043861627
1684116021815030000,4.803030029296875,-7.701265866234898,8.764387264934182,-5.530026573768258
1684116021835159000,4.823158935546875,-12.307321153318881,7.6875775326222175,-6.200276197361946
1684116021855288000,4.8432880859375,-13.605041581487654,3.9140719705879685,-5.131026671171188
1684116021875416000,4.863416015625,-7.058397001519799,1.6948773332476614,-5.188273576003313
1684116021895545000,4.883545166015625,-5.384331570154428,4.280040833459794,-12.702149323189257
1684116021915674000,4.903674072265625,-6.394750137192011,-0.46129386168569325,-18.565289661192892
1684116021935803100,4.92380322265625,-1.081485322907567,-1.1790391036868095,-18.44546734998226
1684116021955932200,4.94393212890625,7.506403219348192,-3.326045579911768,-11.943190904051065
1684116021976060200,4.96406005859375,12.452697592502831,-6.786418381726741,-10.745170036518573
1684116021996189200,4.984189208984375,2.4795956320643424,-2.6572002701580524,-16.44368329142332
1684116022016318200,5.004318115234375,-4.072745698240399,-3.0071532332524655,-17.72868919944763
1684116022036447000,5.024447021484375,-2.4248463892668486,0.2726379604846239,-13.299617203688621
1684116022056576000,5.044575927734375,-1.5692369834080337,1.6652032027348875,-12.653715839409827
1684116022076704000,5.0647041015625,-3.8536432208493347,3.6626714439213273,-11.541779848659038
1684116022096833000,5.0848330078125,-5.507313806700706,5.12509143590331,-11.084641645348071
1684116022116962000,5.104962158203125,-5.164924849119783,8.097025179475546,-10.150752191239595
1684116022137090800,5.1250908203125,-5.5851604319691655,10.192449644762277,-8.448195409405232
1684116022157218800,5.14521875,-5.22770425363779,13.330958098369836,-2.647807587912679
1684116022177348000,5.16534814453125,-5.724135187417269,13.438326586198807,-0.7003051546394825
1684116022197477000,5.18547705078125,-3.605422493262589,12.754777336049079,1.7340756634309886
1684116022217606100,5.205606201171875,-0.40762773794978857,11.621396406209469,1.7031433495506643
1684116022237735000,5.22573486328125,1.1143500661551953,12.106831314200162,3.911758140687644
1684116022257863200,5.24586328125,0.5950049975171685,12.997063997411727,4.731913955849409
1684116022277992000,5.265991943359375,-0.9062123426318168,12.18069033113718,2.518828741300106
1684116022298121000,5.286120849609375,-2.230759987449646,10.99131921852827,2.0242992572277783
1684116022318250000,5.30625,1.7406737465217708,9.512371870115398,3.8106840768277643
1684116022338378000,5.3263779296875,4.178299245601893,10.123267971986532,5.761660323691368
1684116022358507300,5.34650732421875,1.3065583991408347,12.843843274468183,7.077500930440426
1684116022378636000,5.366635986328125,-2.120069953982532,12.077826168990134,5.533530197975039
1684116022398765000,5.38676513671875,-0.7443912568643689,8.640140707540512,3.4200922293528913
1684116022418894000,5.40689404296875,1.52066993637681,7.956363493853807,2.952802342122793
1684116022439022000,5.42702197265625,0.48270519076585766,8.024147574791312,1.9574381363540887
1684116022459151000,5.447151123046875,-1.7638117532640694,9.209523480284213,2.9840032438114283
1684116022479279900,5.46727978515625,-0.20303543194830417,7.5873729450732466,6.03765811599791
1684116022499409000,5.487408935546875,1.5479712002784012,6.317618382194638,7.316589672544598
1684116022519537000,5.507536865234375,-2.41729085932076,4.705190784096717,7.053413367888331
1684116022539666000,5.527666015625,-7.9091925773561,3.6266599270805715,7.661513701561093
1684116022559795200,5.547795166015625,-10.107284805434942,-0.21449235324710605,6.1733706547796725
1684116022579924200,5.56792431640625,-10.72414010797143,-2.021828483200073,7.0278224150359625
1684116022600053000,5.588052978515625,-11.964112111526727,-4.149837705749273,10.401636000555753
1684116022620181000,5.608180908203125,-16.750917348992825,-6.353689228007197,9.988402405422926
1684116022640310000,5.62831005859375,-15.942465123367308,-10.329607706177233,5.139293564257025
1684116022660439000,5.64843896484375,-13.928221396207809,-9.613202480608225,6.307410876435041
1684116022680568000,5.668568115234375,-11.462565442168712,-7.089226439547538,11.974620646059513
1684116022700696800,5.68869677734375,-10.896289987790585,-5.013316237547993,15.686449211859703
1684116022720824800,5.708824951171875,-13.30111007259488,-3.203388045275211,13.133844457685946
1684116022740953900,5.728953857421875,-11.484845078516006,-1.7406214318126438,8.374125964587927
1684116022761083100,5.749083251953125,-9.144836780840158,1.2910288215756416,8.134014893698692
1684116022781212200,5.769212158203125,-6.274060980018973,4.786953121504188,10.471022255992889
1684116022801340200,5.789340087890625,-5.1060570650875565,7.83696145388186,10.912390058720112
1684116022821469200,5.80946923828125,-5.367959696546197,10.55499934684038,8.627184195333719
1684116022841598000,5.829597900390625,-3.1216572720497844,12.706802117431163,5.488182405251265
1684116022861727000,5.84972705078125,-1.2437643815755843,15.778604932987689,5.706570889154076
1684116022881856000,5.86985595703125,0.4810729133889079,18.5180158688426,6.389891591244935
1684116022901984000,5.88998388671875,0.7364373752504587,16.832341248226165,2.5045672839745876
1684116022922113000,5.910113037109375,0.16303133834004402,16.392362269508837,0.7346344174817204
1684116022942242000,5.930241943359375,0.41630408861935136,16.66309994933009,1.3553095705673097
1684116022962371000,5.95037109375,0.4156894638523459,14.767915147793293,0.637236996307969
1684116022982499000,5.9704990234375,-0.4900166828230023,12.027377253735064,-2.69752643532753
1684116023002628000,5.990628173828125,-0.16368044989854097,10.649114385342598,-5.383021072077751
1684116023022757000,6.010757080078125,0.45118718595206736,10.864437051934003,-3.1943133429378268
1684116023042886100,6.03088623046875,1.6397183406054974,11.50814879721403,-0.149110949537158
1684116023063015200,6.05101513671875,-0.2972948473572731,11.493563807022571,-0.4087041350096464
1684116023083143200,6.07114306640625,-4.635615143567324,10.796657062649727,-1.4980407559394835
1684116023103272200,6.091272216796875,-4.3851317317456004,10.514150619101525,-2.623787537638843
1684116023123401200,6.111401123046875,0.07487783859074115,9.75636767348349,-2.924165445703268
1684116023143530200,6.1315302734375,1.1621440829873084,7.842659957784414,-4.529435281001031
1684116023163658200,6.151658203125,-0.49593058304190635,5.834954692482948,-6.100746148073673
1684116023183787000,6.171787109375,-4.2180315365314485,4.213408552905917,-6.2229591538131235
1684116023203916000,6.191916015625,-5.105499431204795,2.272375607907772,-8.86411079096794
1684116023224045300,6.21204541015625,-1.8444991549164056,0.843435860723257,-9.313374315381049
1684116023244174300,6.23217431640625,-1.6915087335973977,0.8819140599384904,-6.722645289996266
1684116023264302300,6.25230224609375,-1.5019588061660527,4.334523826536536,-5.78877337154448
1684116023284431000,6.27243115234375,-2.500056820812821,6.992369993382692,-6.929974619746208
1684116023304560000,6.29256005859375,-6.535314792180061,1.1530416158601642,-21.72700363382101
1684116023324689200,6.312689208984375,-2.488133743306994,-2.7575591714859007,-15.086381377995012
1684116023344817200,6.332817138671875,2.876109563064575,-2.830451096956432,-8.368015372753144
1684116023364946200,6.3529462890625,-0.29589374838769433,-6.048915423071384,-13.258150051790475
1684116023385075200,6.3730751953125,-5.743471171528101,-5.651115543913841,-16.441810483288766
1684116023405204000,6.393203857421875,-5.297146623176336,-3.05058087156862,-14.038324277436733
1684116023425333200,6.413333251953125,-5.9788359246730804,-0.21927958752363919,-14.371534487783908
1684116023445461200,6.433461181640625,-8.073926043438911,2.156370224636793,-18.1062599450469
1684116023465590300,6.45359033203125,-3.5322061581432815,4.54915967990756,-15.944260774612426
1684116023485719300,6.47371923828125,-1.210768997685611,8.802865756410359,-10.8505289380908
1684116023505848000,6.49384814453125,-4.412870802542567,12.266119374358654,-6.067147245332598
1684116023525977000,6.51397705078125,-6.845272721755504,13.950077838706969,-2.4101012400776147
1684116023546105000,6.53410498046875,-4.983121590292454,14.001896873271464,-0.4432575619965791
1684116023566234000,6.554234130859375,-1.3108636951193213,13.011822006082534,-1.0755126782387494
1684116023586363100,6.574363037109375,0.0016287702456116676,13.104585629975794,0.8671002294272184
1684116023606492200,6.5944921875,-1.5062965431094169,13.900047441124915,3.126581868970394
1684116023626620200,6.6146201171875,-1.2858264306269584,13.50590549995303,2.8616438153386112
1684116023646749200,6.634749267578125,-0.6835474965840578,12.95882457538843,1.0926096512511372
1684116023666878200,6.654878173828125,1.0824316638469695,10.896343763804435,1.8525860152602194
1684116023687007200,6.67500732421875,2.7944869263887404,11.44408519810438,5.333097642001509
1684116023707136300,6.69513623046875,1.2778259333923458,12.750619047325848,6.489976351806521
1684116023727264300,6.71526416015625,-2.307490175908804,12.475092964184283,4.604862277907133
1684116023747393000,6.73539306640625,-3.208174110507965,11.439503715533018,4.25534682944715
1684116023767522000,6.75552197265625,0.1983829299673438,7.340670220834016,3.69303823287338
1684116023787651000,6.775651123046875,3.8057135949388146,7.406983644697069,5.521375649800897
1684116023807779000,6.795779052734375,-0.6706254711687565,9.551676875543594,6.700624012324214
1684116023827908400,6.815908447265625,-5.568001207375526,10.077360791814327,6.615755525594949
1684116023848037000,6.836037109375,-5.9539405528694385,6.736170542001724,4.912095166432858
1684116023868166100,6.856166259765625,-3.1349083832889795,2.6421155137509107,5.235957118198275
1684116023888295200,6.876295166015625,-3.0448598635733126,2.136060427057743,5.949993276548385
1684116023908423200,6.896423095703125,-5.593465903499722,2.6765514518380162,6.140487206831574
1684116023928552200,6.91655224609375,-7.432544202411174,0.47156186546087264,1.6273866822987795
1684116023948681200,6.93668115234375,-1.5406991634488105,-2.467050623267889,2.096577580844611
1684116023968809700,6.956809814453125,-4.940687054666877,-0.6429363769933581,5.419159722429514
1684116023988937700,6.976937744140625,-7.464066298878192,-3.6292142877385016,3.9205481808647513
1684116024009066800,6.997066650390625,-5.857974918064475,-5.32584197178483,4.086170704741776
1684116024029195800,7.01719580078125,-6.544608105704188,-8.075805281314253,6.441857925325632
1684116024049324800,7.03732470703125,-15.166889915949106,-9.30237010628581,10.4229207806468
1684116024069453800,7.057453857421875,-22.78805816311836,-8.517026369047164,11.427429831379651
1684116024089581800,7.077581787109375,-12.982304819697141,-7.910670248693227,7.244744918039441
1684116024109710600,7.097710693359375,-7.232900166466831,-5.616176332479715,5.632663941422105
1684116024129839900,7.11783984375,-7.292614922717213,-2.9998125151008366,7.952396928310394
1684116024149969000,7.137968994140625,-6.6935419451087705,-2.3385633595645428,8.64303525993824
1684116024170097000,7.158096923828125,-5.648217484384775,-0.5009428582459687,9.87359996820092
1684116024190226000,7.178225830078125,-4.12115872375369,1.661524514222145,11.025136147934198
1684116024210354700,7.198354736328125,-4.353858641603589,6.379033512622118,13.056722639560698
1684116024230483700,7.218483642578125,-4.617990639549493,8.976941635856031,10.883512339282035
1684116024250611700,7.23861181640625,-2.809571682795882,11.458527564954757,8.917091855049133
1684116024270740700,7.25874072265625,-1.8822393952459096,12.060624858820438,5.609822579538822
1684116024290869800,7.278869873046875,-0.3561176232039928,12.250687996470928,2.935441165216267
1684116024310998800,7.298998779296875,0.6987690311133861,13.51355104627013,3.9280443818390367
1684116024331127800,7.3191279296875,-1.128449903178215,14.540440271115303,2.9870988717392084
1684116024351255800,7.339255859375,-2.519058458402753,13.101418690377473,0.3012497224628925
1684116024371384800,7.359384765625,-0.7522565834119915,11.046687470006942,-1.86495946688205
1684116024391513900,7.379513916015625,1.1273220681920646,10.912702193409205,-1.899167149171233
1684116024411643000,7.399642822265625,1.713309938777983,10.685911207342148,0.486560551019758
1684116024431771600,7.419771728515625,1.2070067225426435,10.52325863918662,-0.5374395282551646
1684116024451899600,7.439899658203125,0.5335854831755161,9.651501523864269,-3.248101924009621
1684116024472028700,7.460028564453125,2.0455752694904805,9.77727602147758,-2.478012746787071
1684116024492157700,7.48015771484375,2.033147165071964,10.613992803078888,0.5726888285517692
1684116024512287000,7.500286865234375,1.606753059592843,11.070248378336428,2.656592951914668
1684116024532414700,7.520414794921875,0.6610796441882848,10.352969877064227,0.18838643660992382
1684116024552544000,7.5405439453125,-3.5109435898840426,8.220745667168497,-2.2349098006054757
1684116024572672800,7.5606728515625,-5.526531132867932,6.50999038130939,-4.2487344255700705
1684116024592801800,7.5808017578125,-3.3474405423790214,4.940566643157601,-3.5498142955482006
1684116024612930800,7.600930908203125,-1.1136539005845785,3.9154502732038496,-3.8622523515015836
1684116024633058800,7.621058837890625,-0.46963352774679656,3.435501103147864,-6.740665515333414
1684116024653187800,7.641187744140625,-5.3245016630917785,2.0743997974365946,-13.382020761609077
1684116024673316600,7.661316650390625,-8.492799105763435,2.603609842006862,-12.059254739511012
1684116024693445600,7.681445556640625,-5.8197290663003916,4.67282814515233,-8.05260911464393
1684116024713573600,7.70157373046875,-4.7729877245157954,0.757190532682836,-13.824333151710032
1684116024733703000,7.721702880859375,-7.46416508307755,-5.195447413155436,-21.568214755356312
1684116024753832000,7.74183203125,-4.517738705727457,-3.3081890207037326,-15.638759239923953
1684116024773960700,7.761960693359375,-3.223106891223788,-2.41486567800045,-14.820466003763675
1684116024794089700,7.78208984375,-3.2864772473722694,-1.39292647677809,-13.383996445596217
1684116024814217700,7.8022177734375,-6.0547600574463605,0.3539011161983013,-12.232151638305186
1684116024834346800,7.8223466796875,-7.30213327716887,2.0875950868353246,-11.035029765439033
1684116024854475800,7.842475830078125,-7.10837596117556,5.1839422688007355,-11.019719968104361
1684116024874604800,7.862604736328125,-4.242567427372932,8.645646903741358,-9.009651480802892
1684116024894732800,7.88273291015625,-2.4486077886044977,10.652226379883288,-5.724991511985659
1684116024914861600,7.902861572265625,-3.5905911270946262,11.882322301590442,-3.25042510626018
1684116024934990800,7.922990966796875,-3.427640452775359,12.73789868196249,-1.9918813809648155
1684116024955121000,7.943120849609375,-0.9644815762490033,12.959973745423554,-1.1089467458069324
1684116024975249000,7.963248779296875,3.930086116799712,12.727648506104945,2.342345216190815
1684116024995377700,7.983377685546875,5.123330855971575,13.013053009182213,5.187369905161857
1684116025015507000,8.0035068359375,2.7644243810802696,12.797737356853485,4.5712020003676415
1684116025035636000,8.023635986328125,-1.3050924182415007,11.73118598370552,3.1263825470060107
1684116025055765000,8.043764892578125,1.200644201773405,10.218232905316352,3.295800079251826
1684116025075893000,8.06389306640625,4.515791371051967,8.686014569965005,3.638167994044721
1684116025096022000,8.08402197265625,3.957507207688689,8.507368898385762,2.6967534051284194
1684116025116150800,8.10415087890625,1.1493541595190764,9.499288516658543,2.3234397324517366
1684116025136279800,8.12427978515625,-1.1154700100958346,8.796304498198628,3.0752851047143337
1684116025156407800,8.14440771484375,-0.0798231860384345,6.665033643504977,2.823820280639827
1684116025176536800,8.164536865234375,1.6036030711293219,4.90196189495325,3.650256491245329
1684116025196665900,8.184665771484376,-0.2140045697301626,5.5362634223312135,4.870959438446164
1684116025216795000,8.204794921875,-2.7706115452826023,6.749687026178837,5.296309587830304
1684116025236924000,8.224923828125,-1.4148819957375525,5.453069006294012,5.49279662104845
1684116025257052000,8.245052001953125,1.5203355898559092,4.028564026686549,8.206209776815772
1684116025277181000,8.265180908203124,-1.5441215391129255,3.080021777847409,9.241006998306512
1684116025297310000,8.28531005859375,-8.032769857186079,1.172477260953188,5.979504617714881
1684116025317438700,8.305438720703124,-8.334066341400145,-3.7755765230894087,-0.3588860650040209
1684116025337567000,8.32556689453125,1.0254097999423741,-5.79067540577352,3.612949089375138
1684116025357695700,8.34569580078125,-7.378862881106138,-3.8667835651904343,7.417287012046575
1684116025377824800,8.36582470703125,-8.057454216587542,-7.335015556073189,5.453058484899997
1684116025397954000,8.3859541015625,-12.375458869999646,-7.299388946896791,7.423629074549675
1684116025418083000,8.4060830078125,-16.802013914501664,-5.535202515101433,9.875815306162833
1684116025438211000,8.426211181640625,-16.15145624884963,-4.876164605873823,8.801475763356684
1684116025458339800,8.44633984375,-12.528480855500698,-4.318890788596868,7.429057529339194
1684116025478468900,8.46646875,-9.290104498952626,-2.8149966304540635,8.785562739431857
1684116025498598000,8.486597900390626,-8.043348534345627,-0.7563397610723972,8.55338246154189
1684116025518727000,8.506726806640625,-6.388268373957276,2.0339596504986286,8.300883033722638
1684116025538855000,8.52685498046875,-3.590667699462175,4.858854574632645,8.416549394297599
1684116025558983700,8.546983642578125,-1.395582251983881,6.588507453185319,8.014529267096519
1684116025579112700,8.56711279296875,-0.4897153617888689,7.400841488680243,6.379696944966912
1684116025599242000,8.587241943359375,0.047129415443539616,7.582167193123698,3.797199156832695
1684116025619370000,8.607369873046874,0.8957143294930457,9.047185969427227,2.2943401869565245
1684116025639499000,8.6274990234375,1.032062243568897,10.71252098184824,2.9439094260931014
1684116025659628000,8.6476279296875,0.50032501860857,10.125797782725096,1.5624965692371129
1684116025679756800,8.6677568359375,0.4743491580918431,8.68904473144114,-0.34003917958438395
1684116025699885800,8.6878857421875,1.7080404739424586,7.391027950674295,-0.6612164223104715
1684116025720013800,8.708013916015625,3.8702760834813117,7.306192197170853,1.6708590365394949
1684116025740142800,8.728142822265625,3.3971836474522945,8.780870782223344,3.1027064878642556
1684116025760272000,8.74827197265625,-0.03518646419346332,9.529158169743418,1.257094111008942
1684116025780400600,8.768400634765625,-2.448220835113525,9.10227423492074,-2.0419801676079627
1684116025800528600,8.788528564453125,0.8415478550195693,8.020057090607285,-2.4452428422160444
1684116025820658000,8.808657958984375,1.0603098484098912,8.25889857995212,-0.40097865532413124
1684116025840787000,8.828786865234376,-2.5240631348222493,10.1795773037076,-0.026480302907526492
1684116025860916000,8.848916015625,-3.275948254573345,10.399530552709102,-0.6196978324860334
1684116025881045000,8.869044921875,-0.14875614475011825,8.977759381979704,-1.0667483570247889
1684116025901173000,8.889173095703125,-0.6406506041437388,6.633559477832913,-4.378785285328329
1684116025921301800,8.9093017578125,-0.5998895546883344,5.035349790179729,-6.107077689182758
1684116025941430800,8.9294306640625,2.1589485506922004,4.1804082005798815,-4.894488782593608
1684116025961559600,8.9495595703125,3.113680886343121,3.849828923258185,-3.273993613374233
1684116025981687600,8.9696875,1.079478659260273,3.1106144845098256,-4.4128591121047736
1684116026001816600,8.989816650390624,-2.0295470947533847,1.473627030172944,-6.056290920275449
1684116026021945600,9.009945556640625,-4.536044177746772,2.2245500268936156,-6.443447824865579
1684116026042074400,9.030074462890624,-5.857140220806002,5.052267022711038,-6.479824960148334
1684116026062203400,9.050203369140625,-8.507868664601444,-0.5408937603622674,-21.182074918854234
1684116026082331400,9.070331298828124,-7.509002588191628,-2.1620542616225777,-21.079540427052972
1684116026102460400,9.09046044921875,-5.451173986327648,-1.8643584322489797,-17.60892066425085
1684116026122589700,9.110589599609375,-4.7106776910752055,-2.83181537104696,-18.920660265421866
1684116026142718500,9.130718505859376,-6.878843567445874,-0.4774146831423044,-15.675072077798843
1684116026162846500,9.150846435546875,-5.547143712785839,1.6656632214620708,-11.564860279995202
1684116026182975500,9.1709755859375,-2.4444004000425337,3.290013897065818,-11.091634865236282
1684116026203104500,9.1911044921875,-2.303120290261507,5.889308213961124,-9.993307713121176
1684116026223233500,9.211233642578126,-4.817652211150527,8.124258054316043,-7.870005060827731
1684116026243361500,9.231361572265625,-9.556338437613844,9.832821383088827,-7.093312247556447
1684116026263490600,9.251490478515626,-8.333373682960868,12.495532525622844,-5.02738451038897
1684116026283619300,9.271619384765625,-4.953166597011685,13.95789289637208,-3.1857430829912423
1684116026303748600,9.29174853515625,-1.4984738866597413,15.069029261177777,-0.12399433619827031
1684116026323877600,9.311877685546875,1.352149937492609,14.803573321151733,2.575135150411725
1684116026344005600,9.332005615234374,3.0099194830954072,14.298895952552556,3.4494095092520114
1684116026364134700,9.352134765625,2.400686638261378,14.037763136422633,4.3860383251965045
1684116026384263400,9.372263427734374,0.8331620117291808,13.295361884331703,3.993097576507926
1684116026404392400,9.392392333984375,0.2795285967811942,10.949408999037741,3.7917411836877464
1684116026424520400,9.4125205078125,2.61237942391783,8.23692990925014,6.316399069532752
1684116026444649500,9.4326494140625,5.0612160528421395,8.308817333853245,6.136540515032411
1684116026464778500,9.452778564453125,4.297282183378934,9.39159211204946,4.981863114663958
1684116026484907300,9.4729072265625,1.0908119541794061,9.947054495990276,2.562161687070131
1684116026505036500,9.49303662109375,-1.7414087827980518,10.798698213088512,1.7317682632714508
1684116026525164500,9.51316455078125,0.1556985112339258,9.941510890388487,1.2304179932683705
1684116026545293600,9.53329345703125,5.154627326989174,8.092156112134456,2.0497036014668644
1684116026565422600,9.553422607421876,6.913630803188681,8.73729233725965,5.961168750557303
1684116026585551600,9.573551513671875,3.1753952919781208,9.53527168418765,7.428564777386188
1684116026605679600,9.5936796875,-2.4576392363220454,7.271923432344198,6.938964566409587
1684116026625808400,9.613808349609375,-3.7772733901351687,5.127243645501136,7.006065341258049
1684116026645937400,9.6339375,-1.111267882230878,4.21868152487278,10.378875887215138
1684116026666066400,9.65406640625,-0.7613046900033951,3.0344267323642966,11.611141554176807
1684116026686195700,9.67419580078125,-9.632019409281014,-2.8604060902372,2.272733627565205
1684116026706323500,9.694323486328125,-11.45229305447936,-3.3426173600062725,7.121949143975972
1684116026726452500,9.714452392578124,-16.539236253774167,-2.4915011739134787,8.949009088313579
1684116026746581500,9.73458154296875,-15.144899033415317,-7.631494410872459,6.307922917610407
1684116026766710500,9.75471044921875,-13.928988288927078,-8.570563313445449,8.619975871390103
1684116026786838500,9.774838623046875,-16.284267805492878,-8.364885842555761,9.910523046928644
1684116026806967600,9.794967529296875,-16.605238127470017,-4.097547546541691,13.29573948547244
1684116026827096600,9.8150966796875,-9.661423782941698,-1.9422537189647555,13.258360479670761
1684116026847225300,9.835225341796875,-4.29680638256073,-2.5118039572298527,9.477779280161856
1684116026867353300,9.855353271484375,-3.3751644156068563,-0.9324266880795359,8.773933091914653
1684116026887482400,9.875482421875,-4.328842273768783,2.1591455345690247,8.950134877473115
1684116026907611600,9.895611572265626,-2.6614105813294646,4.703586856031418,9.28575039539635
1684116026927740700,9.91574072265625,-0.012382511711120604,6.675010847640037,8.57196148980558
1684116026947869200,9.935869140625,1.302026016408205,9.104132430008054,7.399968797498941
1684116026967997400,9.95599755859375,2.2316607356816527,9.983381362390517,5.681464504948258
1684116026988126200,9.976126220703126,2.9350170945852994,10.796621991336345,5.023259539413452
1684116027008255200,9.996255126953125,3.217002729129791,11.980261282294988,4.995702254924177
1684116027028384300,10.01638427734375,1.8295564373284576,13.964254832619428,5.977260053658485
1684116027048512300,10.03651220703125,-1.0224982964098452,14.297421788346767,5.168170699173212
1684116027068641300,10.056641357421874,-2.8049954609215257,13.041473632502555,1.463124925380945
1684116027088770000,10.07677001953125,-1.946258570691943,12.454013935798406,-0.055313886376353906
1684116027108899300,10.0968994140625,0.17918226267397402,12.055780341398716,-0.4159697420984506
1684116027129028400,10.1170283203125,0.669938073426485,10.823540393400192,-1.888879856173694
1684116027149156400,10.13715625,0.67653089582026,10.475855082976818,-3.628130584155023
1684116027169285400,10.157285400390625,2.9367455258131026,11.126583429020643,-2.227723396232724
1684116027189414100,10.1774140625,2.4184639947533606,11.03818618364334,-0.7852870386153459
1684116027209543200,10.197543212890626,1.2691232792377471,9.82621511669159,-2.475079323683679
1684116027229671200,10.217671142578125,1.9306120887488125,9.158883426371217,-2.748023573638499
1684116027249800200,10.23780029296875,1.9343202956169843,10.103598810398578,-0.3467275713071227
1684116027269929200,10.25792919921875,0.6320511181026697,10.026624291789531,-0.09635083473026752
1684116027290058200,10.278058349609376,-0.35409926911890505,8.964792932900785,-3.2277643616408107
1684116027310187300,10.298187255859375,-3.8261598783791064,6.913570012912154,-4.921175129467248
1684116027330315300,10.318315185546876,-8.640876036077737,3.9238448843225835,-5.679194221928715
1684116027350444300,10.3384443359375,-11.974319032764434,2.588837804810703,-9.079807551568747
1684116027370573300,10.3585732421875,-8.639408301612734,1.2303881826519965,-9.217961638283729
1684116027390702300,10.378702392578125,-5.589522134310006,-0.38652094477415083,-11.087838980084657
1684116027410830300,10.398830322265624,-2.6834458875268696,1.0495736426010727,-9.687003045356272
1684116027430959000,10.418958984375,-1.1847241635859012,1.8512538898736237,-10.6145305632174
1684116027451088100,10.439088134765624,-7.581629432985186,-0.9634329439789057,-18.397323789060113
1684116027471217200,10.459217041015625,-8.961286386084556,-2.9638495135769247,-18.401747450721263
1684116027491345200,10.47934521484375,-4.3432665204405785,-1.839329497193545,-12.65538991010189
1684116027511474200,10.49947412109375,-2.8438614904105664,-1.5865610431745647,-11.566982094454765
1684116027531603500,10.519603515625,-5.665866538321971,-0.36094811210036276,-12.823491391313075
1684116027551732200,10.539732177734376,-8.564253984168172,1.2872425810351966,-12.490275335747002
1684116027571861200,10.559861328125,-7.389476045057177,5.098418533033132,-9.458052250906825
1684116027591989200,10.5799892578125,-7.376548758944868,7.572448347663879,-5.563616124159098
1684116027612118300,10.6001181640625,-5.875550322243571,9.580523030799627,-4.515101635222137
1684116027632247300,10.620247314453126,-3.034155514207482,11.422932519960403,-2.65933085244596
1684116027652376000,10.6403759765625,-0.028546880048513412,12.126785722470283,0.4545332815095782
1684116027672504000,10.660504150390626,0.5298790298730135,12.042303604710101,2.570974231339991
1684116027692633000,10.680633056640625,-0.17807926986813544,11.405620150631666,1.8008064359232783
1684116027712762400,10.700762451171874,-0.8092050898194313,11.621481746405362,0.8315548687934875
1684116027732891400,10.720891357421875,-2.440381227529049,11.605301011455058,-0.9428637648113072
1684116027753020200,10.741020263671874,-0.9197375946372747,12.235481074988842,0.4693791145943105
1684116027773148400,10.7611484375,3.163401487323642,13.759388093590736,3.905292451804876
1684116027793277200,10.781277099609374,3.6966567156314847,13.316191906392573,4.259474723032117
1684116027813406200,10.80140625,2.43553875593394,11.261847639513014,2.6348139585658905
1684116027833535200,10.82153515625,3.293689662969112,9.392094216352701,2.4612638565599916
1684116027853663200,10.841663330078125,5.821884783029556,9.859128375256061,4.968973237952589
1684116027873792300,10.861792236328125,4.865450904157758,11.46449085727334,6.450594774010777
1684116027893921000,10.881921142578125,1.2762661367297172,10.809827509868144,5.001407188567519
1684116027914050300,10.90205029296875,-1.290502167353034,7.536854471713304,2.4746236888706683
1684116027934178300,10.92217822265625,1.5862515388339757,5.7021676857590675,3.553827038320899
1684116027954307300,10.942307373046875,1.6471593042612074,6.500535739743709,5.200968222403526
1684116027974436400,10.962436279296876,-0.1774585076212883,7.464873523607849,5.824304703652858
1684116027994565400,10.9825654296875,-2.164032137566805,7.007678621673583,6.160741474831104
1684116028014694100,11.002694091796876,-2.581281982603669,4.6025575080960985,5.617654003816843
1684116028034822100,11.022822265625,-1.5787772574305534,1.9890128397911786,6.747596775901317
1684116028054951200,11.042951171875,-1.7885171554535626,2.317750580899417,8.471932258823513
1684116028075080200,11.063080078125,-5.953175998237729,0.4905886374920606,7.930576726168393
1684116028095209500,11.08320947265625,-8.12417096055448,-3.667275138324499,8.731984293979405
1684116028115337200,11.103337158203125,-12.791952928233146,-6.598807897925377,11.365285802155732
1684116028135466200,11.12346630859375,-20.245790094041823,-8.04285519787073,12.761763541674613
1684116028155595300,11.14359521484375,-23.254838639521598,-9.013509909796714,12.535972088038921
1684116028175724300,11.163724365234375,-15.140019444680213,-7.637827705547213,13.353493755304813
1684116028195852300,11.183852294921875,-11.680442469418049,-5.635204273554683,14.00061560128927
1684116028215981300,11.203981201171874,-10.273977588891983,-2.97391030434221,12.143907537662983
1684116028236110300,11.2241103515625,-7.617760484552383,-0.9948492419838905,8.961898965024947
1684116028256239000,11.244239013671875,-2.9350013124942778,1.920306967833638,9.056538319662213
1684116028276368100,11.2643681640625,0.7408844177871942,5.034515092921256,10.45841411883235
1684116028296496000,11.28449609375,2.6356810967892406,6.482362369671463,8.855696013844012
1684116028316625400,11.30462548828125,2.0411784958362578,8.546599669533968,6.868698605528474
1684116028336754400,11.32475439453125,2.264787344735861,9.716614924287795,5.576016171526908
1684116028356883200,11.34488330078125,2.647534616190195,10.221008215248585,4.016055842769146
1684116028377011200,11.36501123046875,1.7789970474362373,13.645453086853026,4.936860774376989
1684116028397140200,11.38514013671875,-0.6355202555179595,15.930122359144686,5.794944169133902
1684116028417269200,11.405269287109375,-1.8894199543997645,15.016986939251423,2.339382128601521
1684116028437398300,11.425398193359374,-0.7979954212799668,12.831980987238882,-0.9027193859495222
1684116028457527000,11.445527099609375,0.8782944081366062,11.874431256079673,-1.225148528432846
1684116028477655300,11.4656552734375,0.7928343852549791,11.706066740018128,-0.5606093914404511
1684116028497784000,11.4857841796875,0.2068959067687392,10.539228946256637,-1.5933666315361856
1684116028517913300,11.505913330078124,1.5633672145918012,9.809002116084098,-3.3112118756562468
1684116028538042400,11.52604248046875,1.7500985774710773,9.547698619562388,-1.6377917564570903
1684116028558170400,11.54617041015625,1.1958832709819078,10.453476077908277,-0.24136004803702235
1684116028578299400,11.56629931640625,-0.754534757477045,10.68577326017618,-0.9210754191122948
1684116028598428200,11.58642822265625,-0.7875701811164617,9.272188318511843,-3.244508283431828
1684116028618557200,11.60655712890625,-0.262585353025794,7.291375736311077,-5.00875404419899
1684116028638685200,11.626685302734375,-0.4094850562542677,6.504404105609655,-3.9898829983755943
1684116028658814200,11.646814208984376,-1.7153256625145672,6.943314578312635,-2.6254700838983056
1684116028678943200,11.666943115234375,-4.209530834689736,5.708946970635652,-3.136258628854155
1684116028699072300,11.687072265625,-4.6982338045656675,5.170916783010959,-5.118959216758609
1684116028719201300,11.707201171875,-3.8271073883622884,4.850628598079085,-9.097917793276906
1684116028739329300,11.727329345703126,-1.4637643923282622,3.443151910161972,-8.360010929995775
1684116028759458300,11.747458251953125,-1.562367389899492,0.8699383754625916,-8.639317700719833
1684116028779587300,11.76758740234375,-4.428604962769151,0.7552242010459304,-11.065767433530091
1684116028799716400,11.78771630859375,-5.60520134947896,-0.8467302260935307,-14.33628314166069
1684116028819844400,11.80784423828125,-3.9876322968393563,-4.885834936016797,-17.532687319397926
1684116028839973000,11.82797314453125,-4.340986300548911,-5.7282654190897935,-15.602794777095317
1684116028860102100,11.84810205078125,-5.626542243671417,-3.750747202259302,-14.146414065277575
1684116028880231200,11.868231201171875,-8.550228381425141,-2.965900600887835,-15.461766011726855
1684116028900359200,11.888359130859374,-10.83799561973214,-0.9664324180558324,-13.86701143296361
1684116028920488400,11.908488525390625,-8.838072094348073,1.3354042621359228,-12.720108173727988
1684116028940617200,11.9286171875,-3.408281672310829,3.8143385076820846,-12.073374450278282
1684116028960745700,11.948745849609375,-1.3356418702840804,5.980360357761382,-12.742471981227396
1684116028980873700,11.968873779296874,-2.182745605865121,9.420673829627036,-10.880929921573399
1684116029001002800,11.989002685546875,-2.6770196538716555,11.99305062124133,-6.726268156668543
1684116029021131800,12.0091318359375,-3.9064275933146475,13.137341067630052,-3.484174533163011
1684116029041261000,12.029260986328126,-4.8811219360202545,13.080875084042548,-1.7834093109205365
1684116029061389000,12.04938916015625,-2.8805215342879293,12.744431298601626,-2.20986449893713
1684116029081517800,12.069517822265626,-0.08517886785268783,13.027411204880476,-1.2526574437357485
1684116029101646800,12.089646728515625,4.0670951251327985,14.015216958093642,3.801820386892557
1684116029121775900,12.10977587890625,4.8184877851918335,13.174305062890053,5.037607798239589
1684116029141905000,12.12990478515625,3.3122909030646084,11.426503948706388,3.0270319459378716
1684116029162033000,12.150032958984376,1.739802516645193,9.938527490663528,-1.268573244139552
1684116029182162000,12.170161865234375,1.659765687856078,9.665884854003787,-1.3656120611339806
1684116029202290700,12.190290771484374,3.455320779122412,11.471263127887248,2.5458073491185904
1684116029222420000,12.210419921875,3.466893728016317,11.855399223351478,4.134274810436367
1684116029242548000,12.2305478515625,0.9697516256064176,10.768944879859685,1.9997021377183495
1684116029262677000,12.250677001953125,-0.724582686805725,8.243777583187818,1.5967958753325044
1684116029282806000,12.270805908203124,1.5468243683308363,7.315529934358596,3.2323896833539005
1684116029302934800,12.290934814453125,1.4051397694021464,9.39261619440019,6.636104486140608
1684116029323062800,12.311062744140624,0.10193009616732597,9.865941562402249,7.179263853347301
1684116029343191800,12.33119189453125,0.36021570617258547,6.648755877920985,6.367023925876617
1684116029363320800,12.35132080078125,1.1319324845969676,2.668853298550844,7.406711842018366
1684116029383449900,12.371449951171876,-3.2580513633549213,3.397878936240077,10.204728111577033
1684116029403579000,12.391578857421875,-7.7989207693010565,4.0937949160099025,13.110309268319606
1684116029423707000,12.411706787109376,-7.037216850847005,-4.9132618721246715,-1.3390923029989004
1684116029443836000,12.4318359375,3.2008523893177507,-5.27914217993021,6.772026283758878
1684116029463965000,12.45196484375,-7.297815998491645,-4.908238491004705,6.790048847183585
1684116029484094000,12.472093994140625,-17.86114419773817,-2.372817511343956,11.984705986744165
1684116029504222000,12.492221923828126,-20.783985116839407,-5.016560918557643,10.693220069050788
1684116029524351000,12.51235107421875,-16.099348460471628,-7.096675586509704,8.735897083508968
1684116029544479700,12.532479736328124,-11.320315026050805,-4.703740585288405,11.26103866121769
1684116029564608800,12.55260888671875,-8.501429571464657,-2.979763414284587,10.362209999096393
1684116029584736800,12.57273681640625,-8.405083997431397,-0.9992021764963864,7.784428718090057
1684116029604865800,12.59286572265625,-6.494409950339794,1.592355116406083,7.325858436149359
1684116029624994800,12.612994873046874,-4.04529070508182,3.7725130438655614,8.808968164938689
1684116029645123800,12.633123779296875,-3.445016534990072,5.8660956806778906,10.383488933968543
1684116029665252900,12.6532529296875,-0.5956126080214977,6.590133593082427,7.394407656240463
1684116029685380900,12.673380859375,1.653544036862254,7.681904747682809,5.728391675817966
1684116029705510000,12.693510009765625,1.61783676366508,9.437239179980754,5.380260375192761
1684116029725639000,12.713638916015626,1.95989780446589,11.612415811896323,5.156055898487567
1684116029745768000,12.733767822265625,2.0417425594598053,11.240855120366811,2.8293121560543772
1684116029765896000,12.75389599609375,3.538296291711926,10.941908414149284,1.6739831599093973
1684116029786024700,12.774024658203125,4.191530483096837,11.861442010647059,2.0898259146273137
1684116029806153700,12.79415380859375,2.36087397557199,11.73439383983612,0.6794148537587374
1684116029826283000,12.814282958984375,1.432503577145934,11.303659659326076,-0.17205496807731688
1684116029846412000,12.834412109375,2.0778104826629162,10.521936450672149,-1.2861051014378666
1684116029866540000,12.8545400390625,1.9180425300329922,9.604215456554293,-3.134565853461623
1684116029886668800,12.874668701171874,2.9494103615969416,9.744963066893815,-2.330002159707248
1684116029906797800,12.8947978515625,3.4978403626829384,10.461127469444275,-1.7587150146469472
1684116029926926800,12.9149267578125,1.834089989104867,10.612527991223335,-3.2956197542488574
1684116029947054800,12.935054931640625,0.1784907732784748,8.886578643363714,-5.388756400859355
1684116029967184100,12.95518408203125,3.205228704705834,9.124909260576963,-2.5247493635207414
1684116029987313200,12.975313232421875,3.487624673616886,9.805777893340586,-1.4314596210509538
1684116030007442200,12.995442138671875,-0.5639741916984319,8.292482869645953,-1.6556296109646558
1684116030027570200,13.015570068359375,-4.757015663880109,5.683536635047197,-2.934219806727767
1684116030047699200,13.03569921875,-8.355895895892381,2.419199323290586,-5.953454815179109
1684116030067828200,13.055828125,-6.359620371621847,-0.01856236938983202,-8.339958322048187
1684116030087957200,13.075957275390625,-2.393784896048903,0.37291327518224715,-5.59427079014182
1684116030108085200,13.096085205078126,1.1240057832509278,0.9006938714712858,-5.482639968693256
1684116030128214000,13.116214111328125,0.18070611124038696,2.017484608776867,-12.036629066205023
1684116030148343000,13.136343017578126,-3.78875924526751,2.1987769954726097,-16.593096438777447
1684116030168472000,13.15647216796875,-5.26319583825767,0.9959614410094916,-16.885226450717447
1684116030188601300,13.176601318359374,-9.387566509795189,-1.074846469414979,-20.104071592843532
1684116030208729300,13.196729248046875,-8.543803316813706,0.07597937009185553,-16.000842493534087
1684116030228858000,13.216858154296874,-0.8411421968281269,1.9726003419116138,-13.022585392159224
1684116030248987100,13.236987060546875,0.8318108893811702,0.6303308701813221,-14.526505269265174
1684116030269116200,13.2571162109375,-3.2877532586574554,3.3269100877866147,-14.072338775241374
1684116030289244200,13.277244140625,-7.023908456462621,7.629495346009731,-10.881261930006742
1684116030309373200,13.297373291015624,-6.255141760015487,10.582855322015284,-5.847257709217071
1684116030329502200,13.317502197265625,-4.660353278982639,10.891592769885063,-3.7614758092835543
1684116030349631000,13.337630859375,-3.175948249685764,10.703488949608802,-5.476100922313332
1684116030369759000,13.357759033203125,2.365524431726336,11.11588317130804,-2.8437618294283746
1684116030389888000,13.377887939453124,5.284516858705878,11.818035415118931,-0.021040742202103137
1684116030410017300,13.398017333984376,3.486072767999768,12.096841835105419,0.8314901329942047
1684116030430146300,13.418146240234375,1.6154004764288663,12.282523396670818,0.419395040372014
1684116030450275000,13.438275146484376,2.7064889094620943,11.813531089437006,1.9537255455717444
1684116030470403000,13.458403076171875,5.6792561812490225,11.913030743587017,3.880877849255502
1684116030490532000,13.478531982421876,6.006622341743111,11.753725147771835,4.215011019666493
1684116030510661000,13.4986611328125,4.610177335450053,10.945483350026606,2.5227628658786414
1684116030530790100,13.5187900390625,3.4407951179027556,10.359738640546798,2.056630039729178
1684116030550918100,13.538918212890625,4.00243239108622,8.895493186703323,4.082155916142463
1684116030571047200,13.559047119140626,4.016877096024156,7.6152113845914595,4.935283734318614
1684116030591176200,13.57917626953125,1.5684902566939591,7.791652239602803,5.235266797846555
1684116030611305200,13.59930517578125,-1.0587941831499337,8.304321775999664,5.094325126239657
1684116030631433200,13.61943310546875,-0.9710270523697138,7.208589316552877,3.6713624076381324
1684116030651562200,13.639562255859374,3.106874128937721,5.226965417969226,4.794820493878424
1684116030671691300,13.659691162109375,5.219214657711983,3.8249469954580064,6.739865889388322
1684116030691820000,13.679820068359374,0.5814338605433702,3.816531633812189,6.797822988316416
1684116030711949000,13.699948974609375,-3.842811153450608,3.4194822807610032,5.1955292462199925
1684116030732077000,13.7200771484375,-2.403608370926976,2.430393501999974,5.2577042551040645
1684116030752206000,13.7402060546875,3.3876609090864656,0.5118114582628012,7.1180240794867276
1684116030772335000,13.760335205078125,5.147148953932524,-1.1262038778170942,7.8526745713204145
1684116030792464400,13.78046435546875,-1.5544856967389582,-2.4994874964922666,5.035954770335555
1684116030812592400,13.80059228515625,-12.49846916359663,-2.702138897559047,3.830803904792666
1684116030832721200,13.82072119140625,-18.137718913149833,-2.0299121286734936,9.210937438735366
1684116030852850200,13.84085009765625,-18.6635992287755,-3.8087104386672377,13.318029643213748
1684116030872979200,13.860979248046876,-19.808700991547106,-5.696915172058343,11.676423296904563
1684116030893107200,13.881107177734375,-17.930530453175304,-5.436620560318231,8.162019337433575
1684116030913236200,13.901236328125,-11.59707561942339,-2.584318281559646,9.356422598990797
1684116030933365000,13.921364990234375,-3.4528567270964383,-0.08431406771689653,11.048188522219657
1684116030953494000,13.941493896484374,-2.024820650753379,-0.23002134629040955,9.694235334697366
1684116030973622300,13.961622314453125,-3.859116976085305,1.22875912014544,8.757033395040034
1684116030993751600,13.98175146484375,-1.9881611913979051,4.069866927933693,10.310886639094353
1684116031013880600,14.001880615234375,-1.3593190984696149,7.355077516371011,10.254427669769525
1684116031034009300,14.02200927734375,-0.11214987688660621,9.628377837908268,9.58275239728689
1684116031054138400,14.042138427734375,0.8908820870310068,10.618176810765267,8.42859580592215
1684116031074266400,14.062266357421874,0.8762707933545112,10.47933532630801,5.666461581605673
1684116031094395400,14.0823955078125,-0.1489969677686691,11.70170036150217,5.493632487350702
1684116031114524400,14.1025244140625,-0.43288229845464227,14.886133530938624,7.515555078575015
1684116031134653400,14.1226533203125,-1.1620154881715774,15.086161597764491,4.478771553951502
1684116031154781400,14.142781494140625,-1.0712918456733227,12.400587466037273,0.8175529391869902
1684116031174910200,14.16291015625,0.5849789858043194,10.96479829134941,-0.37182628366313875
1684116031195039500,14.18303955078125,3.2252970947444437,11.427356181621551,0.4539958136320114
1684116031215168500,14.20316845703125,2.654610838186741,11.542794578659533,-1.53904511263147
1684116031235296500,14.223296630859375,2.249275302827358,10.384190360236166,-2.452107905679941
1684116031255425500,14.243425537109376,3.588884907698631,10.479006825006007,-1.013423594072461
1684116031275554300,14.26355419921875,4.627344158828258,10.644784247183798,0.9704460376113653
1684116031295683300,14.283683349609374,3.754759945032,10.191393998229502,0.3228147808000445
1684116031315811300,14.303811279296875,-0.28323651138842104,11.597753664815425,0.9574413023486733
1684116031335940400,14.3239404296875,-0.03495791613459587,14.525098909598588,4.075661293426156
1684116031356069400,14.3440693359375,-0.7784650836408138,14.216975209712981,1.062702881026268
1684116031376198700,14.36419873046875,-3.1809605248898265,11.490950994175671,-5.47506047334969
1684116031396327400,14.384327392578125,-2.711805720570683,8.202083052274585,-8.426276423063873
1684116031416455400,14.404455322265624,-1.6134709696710108,4.159003008979559,-7.138043954208493
1684116031436584400,14.42458447265625,-7.6017206193774935,1.27192460039407,-10.304925684863328
1684116031456713500,14.44471337890625,-8.695358152371645,3.213287507998943,-12.219385680234431
1684116031476842500,14.464842529296876,-5.674642549973726,4.296847591353953,-9.28230346981287
1684116031496970500,14.484970458984375,3.7069162438392635,5.594035812342167,-8.376702537077664
1684116031517099300,14.505099365234376,1.2253005041241645,2.26530084721595,-12.362625107389688
1684116031537228300,14.525228271484375,-3.0650691233873366,-0.3004362141229212,-13.642740905284882
1684116031557357300,14.545357421875,-3.675374858149886,-3.1207243751138445,-14.855509260094165
1684116031577485300,14.5654853515625,0.9171341341406106,-4.443733558318018,-14.97288359363079
1684116031597614600,14.585614501953126,3.979617332687974,-5.099433263033628,-13.176023557245731
1684116031617743600,14.60574365234375,2.2769699499607086,-4.485141088983417,-14.55041922881603
1684116031637872400,14.625872314453124,-3.4048587121248244,-0.7788086363814771,-12.397089687049387
1684116031658000400,14.64600048828125,-8.567921859025954,3.803970258402824,-12.123304310095309
1684116031678129400,14.66612939453125,-8.721086467868089,6.078660572993755,-11.120068348038195
1684116031698258400,14.686258544921875,-5.817205685302615,6.259824949395656,-10.516325040531157
1684116031718387500,14.706387451171874,-1.8988082527309655,8.460287413737177,-11.362878741014002
1684116031738516200,14.72651611328125,-0.8765338282048701,11.512675334727763,-9.905700741338729
1684116031758644200,14.746644287109374,-2.333355269527435,14.527050043666362,-5.116672567126154
1684116031778773200,14.766773193359375,-5.049170810261368,15.650169107210635,-1.2386053913772106
1684116031798902500,14.786902587890625,-3.107058837854862,15.852843889153002,-0.08472878599762916
1684116031819031600,14.807031494140626,0.6654138740003108,14.77678000677228,2.878751894266903
1684116031839159600,14.82715966796875,2.5557062273204325,14.638270530748366,5.307793689396977
1684116031859288600,14.84728857421875,0.6531599571049213,13.971793995952606,4.7253743249475955
1684116031879417300,14.867417236328125,-0.5141472077339887,12.94345983299613,4.004371834716201
1684116031899546400,14.88754638671875,1.507426423922181,10.786925942230225,3.3420243625491857
1684116031919674400,14.90767431640625,3.791269766783714,10.730419042110443,4.685824404847621
1684116031939803400,14.927803466796876,3.3488129997760057,11.680125658553838,5.3797810672432185
1684116031959932400,14.947932373046875,-0.5096121946528553,12.158866621863842,3.840431272576749
1684116031980061200,14.968061279296874,-1.046049852389097,10.995131470292806,2.3582111861035226
1684116032000190200,14.988190185546875,1.6282745710492132,8.297807864060998,3.0116905844211574
1684116032020318200,15.008318115234376,4.353835845249891,8.110061186659335,4.945347447693347
1684116032040447200,15.028447265625,2.1223434518724678,8.819563208711147,5.117615400934219
1684116032060576300,15.048576171875,0.3668704878866672,9.112504537034035,5.6315983580172055
1684116032080705300,15.068705322265625,0.003009118688106537,7.339530403149127,6.019542029070854
1684116032100833300,15.088833251953124,-3.36355697992146,4.260459057894349,2.5837349287137386
1684116032120962000,15.108962158203125,-4.803728315216302,4.089062626791,4.379446671846509
1684116032141091300,15.12909130859375,-4.177033171188831,3.0860277402639387,5.478364191070199
1684116032161220400,15.149220458984376,-2.8350527455329892,1.6404969237625597,4.929717916885018
1684116032181348400,15.169348388671875,-2.2673662553131577,-0.3170823746278882,5.7515983638823025
1684116032201477400,15.189477294921875,-5.862801899829506,-1.6330761261120437,4.997269358110428
1684116032221606100,15.209606201171875,-8.579062846243382,-2.2507778163447973,2.187953988163173
1684116032241735200,15.229735107421876,-4.11515451490283,-1.7508850516736507,2.888595242889225
1684116032261863200,15.24986328125,3.289424991261959,-3.4292417504921553,7.479799874582886
1684116032281992200,15.2699921875,2.5626456711947916,-6.491326012849807,12.61670975857377
1684116032302121200,15.290121337890625,-7.537687999927997,-5.765220646521449,15.261927329993247
1684116032322250200,15.310250244140626,-17.197857983416316,-1.2790448076628147,18.689249218338727
1684116032342379300,15.330379150390625,-15.242521203255652,0.09942556600049138,18.76229224271774
1684116032362507300,15.35050732421875,-3.9669676944732664,-1.1974953823536634,12.942495371878147
1684116032382636300,15.37063623046875,4.806911036905646,-7.116057747849822,3.7497093836441633
1684116032402765300,15.390765380859374,-3.50484994918406,-1.798246230046451,8.978942454284429
1684116032422894300,15.410894287109375,-8.890103310358525,0.22548282607793807,7.65320238481164
1684116032443022300,15.431022216796874,-9.065956720870732,2.733209743127227,7.619129434818029
1684116032463151000,15.451151123046875,-6.123948159962892,4.510245135101676,8.14114372266531
1684116032483280100,15.471280029296874,-4.645499408721924,6.28852088252604,9.074283235189318
1684116032503409200,15.4914091796875,-0.6384849505424499,5.57021186916232,5.88088642257452
1684116032523537200,15.511537109375,1.404612530657649,7.112257186523079,5.121133053666353
1684116032543666400,15.53166650390625,0.02561374920606613,11.07274545584917,6.823800894659757
1684116032563795500,15.55179541015625,-2.629236742955446,13.74227913787961,6.624485944539308
1684116032583924200,15.57192431640625,-2.307887650793791,13.813082274377345,5.1411844925701615
1684116032604052200,15.59205224609375,0.04744622630774974,12.270082432770728,3.524131865020096
1684116032624181200,15.61218115234375,2.045090993104875,11.586074917459488,2.667267782925069
1684116032644310300,15.632310302734375,1.8498685729950666,12.736156806731223,3.4796208153814074
1684116032664439300,15.652439208984376,-0.28867841018140317,13.289854519087076,1.967008805514872
1684116032684567300,15.6725673828125,-1.5977403165757655,12.77851710807681,-0.656200347714126
1684116032704696000,15.692696044921876,-1.24270025947541,11.18874967007637,-2.8479250865876673
1684116032724825000,15.7128251953125,1.9719991611480712,10.50246485748291,-1.0534170201562345
1684116032744954400,15.732954345703124,4.900799865436554,9.63639280205965,0.23992358549311757
1684116032765082400,15.753082275390625,1.2419552863270042,8.594487209868431,-1.3582856637686491
1684116032785211400,15.77321142578125,-1.2973726376444101,7.417575181338191,-4.583450072044134
1684116032805340400,15.79334033203125,0.5192109208643436,7.014833754125237,-3.2890131955906745
1684116032825469200,15.81346923828125,2.186326386961341,7.888132253670692,-0.11764204456210135
1684116032845598200,15.83359814453125,0.4407318429112434,8.628803320968151,-0.29193507388979195
1684116032865726200,15.853726318359374,-1.9121108018964528,9.274823343190551,-0.9932119961708783
1684116032885855200,15.873855224609375,-0.3051595893830061,9.386954515376686,-0.8103212343677878
1684116032905984300,15.893984375,1.5177122556149958,9.045825202468038,-0.03773848676383495
1684116032926113000,15.914113037109376,-0.2302355735629797,7.788937719947099,-0.828392605370283
1684116032946241000,15.934240966796875,-3.614990824335813,7.708595186209678,-5.141796486988663
1684116032966370600,15.95437060546875,-4.7761698616832495,5.193544794404507,-12.450889081776142
1684116032986499600,15.97449951171875,1.385533736178279,3.534585454495251,-9.174692989921569
1684116033006628900,15.99462890625,-8.794084484061598,2.3942323475554583,-14.305779282325505
1684116033026756900,16.0147568359375,-21.415741051387787,-1.0533066916495561,-22.262584674727915
1684116033046885600,16.0348857421875,-12.617335196995734,-1.4911512886866927,-18.38250732820034
1684116033067014700,16.0550146484375,1.9384207166731355,-3.2410794780269265,-16.40448291541338
1684116033087143700,16.075143798828126,4.650647293004393,-3.737698335593939,-15.568803660166262
1684116033107271700,16.095271728515623,-0.24883447557091712,-1.3503897959522901,-13.464948051142692
1684116033127400700,16.115400634765624,-3.076987524718046,4.269319532959163,-9.234209593251347
1684116033147529700,16.13552978515625,-3.3696085350453853,5.376261660945415,-11.494447604119777
1684116033167658500,16.155658447265626,-1.819665742433071,8.032773364317416,-9.22334800749719
1684116033187786500,16.175786376953123,-2.1399568499743937,8.929857813119888,-6.610963615143299
1684116033207915500,16.19591552734375,-3.117663233977556,9.570191021877527,-5.736150034859776
1684116033228044800,16.216044921875,-4.242958472517133,10.572021793311833,-7.1695876779854295
1684116033248173800,16.236173828125,-4.197732260346412,12.623732204556465,-6.30802813155055
1684116033268301800,16.2563017578125,-2.1884335883736608,14.564536601495742,-1.870341744442284
1684116033288430600,16.2764306640625,-1.8787386936485766,15.046343966639041,1.3816785220548509
1684116033308559600,16.2965595703125,-3.749954006054997,14.722760831815004,0.6949748995274305
1684116033328688600,16.316688720703127,-4.935281396231055,14.613892460817098,0.11479893009066582
1684116033348817700,16.336817626953124,0.369310282254219,15.325042834597825,4.332473908269405
1684116033368945700,16.356945556640625,3.3063702808439728,15.140256760567425,7.525854354271292
1684116033389074700,16.37707470703125,2.969426729187369,13.523638725042343,7.101696629542112
1684116033409203700,16.39720361328125,-0.6693190647453069,11.120603770089149,3.8964685093581672
1684116033429332700,16.417332763671876,0.5483101740986108,9.19390154826045,4.273457655677199
1684116033449460700,16.437460693359377,2.8750387189626694,8.194018988284467,4.410525992982089
1684116033469589800,16.45758984375,1.8440853134185076,8.732280646577477,3.6671208245456217
1684116033489718800,16.47771875,0.018944938966631887,10.045030886095761,4.7276951691105955
1684116033509847600,16.49784765625,-0.5699672946333885,10.231831222558021,5.408991964158416
1684116033529975600,16.5179755859375,2.5045979713737965,7.844172700434923,4.974288295495509
1684116033550104600,16.5381044921875,4.480760681942105,6.294550810340047,4.337494366779923
1684116033570233600,16.558233642578124,3.6485832973361014,7.386777307492494,5.381760842883587
1684116033590362600,16.578362548828125,0.9889560922920704,8.249224158155918,8.129645008051394
1684116033610490600,16.59849072265625,-0.6511223137974739,5.601565038803219,7.92153767966628
1684116033630619600,16.61861962890625,-0.42957624264657496,1.265768415851891,4.832747196690738
1684116033650748700,16.638748779296876,-2.065152661141753,-1.3472303090080617,3.64212403819412
1684116033670877700,16.658877685546877,-6.482105764561891,1.5270026465296744,4.518774478515982
1684116033691005700,16.679005615234374,-7.378026430281996,1.3047557336330413,5.575305977430939
1684116033711134700,16.699134765625,-7.163087210050225,-1.9544652580231427,6.234478911215066
1684116033731263700,16.719263671875,-9.598460254028438,-4.000408776304125,9.090923988866805
1684116033751392500,16.739392578125,-11.804954984271525,-3.0505484306037425,12.077564303183555
1684116033771520500,16.7595205078125,-16.10087756973505,-12.536035216403008,17.630602919226884
1684116033791649500,16.7796494140625,-24.047707511568067,-1.8923206442773342,10.580841059583426
1684116033811778600,16.799778564453124,-2.7127140675872563,-9.172033415323495,9.182137460708617
1684116033831907800,16.819907958984373,-5.388106412518024,-9.500074114078283,9.054947251078486
1684116033852036600,16.84003662109375,-11.705538332229851,-6.562901887285709,8.369743803980946
1684116033872164600,16.86016455078125,-9.259458016276358,-3.301108707053959,6.878597483730315
1684116033892293600,16.880293701171876,-6.28613311060667,-1.7286305497676133,5.409545506387949
1684116033912422700,16.900422607421874,-5.0501995687872165,-0.41117549355924127,4.868077161008119
1684116033932551700,16.9205517578125,-4.962043730950355,2.429129181152582,4.855842241074145
1684116033952679700,16.9406796875,-3.3478502922236917,5.9442649620294565,6.4287243029862635
1684116033972808200,16.96080810546875,-2.1773323486447334,9.145309659048914,8.734348100501299
1684116033992937200,16.980937255859374,-3.4117806203424927,10.590725324738026,9.077665278843044
1684116034013066000,17.00106591796875,-3.0290310108005998,12.157683549559115,8.135868997132778
1684116034033194000,17.021194091796875,-1.7808134492084382,12.919631213641166,5.830243446052074
1684116034053323000,17.041322998046876,-0.05621522369682788,11.849549328279494,3.950976636876166
1684116034073452300,17.061452392578126,-0.5191302568435668,12.79921853532195,4.644390862958133
1684116034093581300,17.081581298828127,-2.1167492851272223,13.730987344014643,4.899990302619337
1684116034113709300,17.101709228515624,-2.364761630660295,13.544805431711673,3.9352065285533664
1684116034133838000,17.121838134765625,-0.2906272061616182,11.8217892146945,1.846715954183042
1684116034153967000,17.141967041015626,2.6466516958758235,10.65863975405693,1.3156284253031014
1684116034174096100,17.16209619140625,3.2746479856297372,11.502427496957779,1.3335063195601105
1684116034194224000,17.18222412109375,1.0761375321388245,12.51279228798151,0.45715720027238127
1684116034214353200,17.202353271484377,-0.07336041976511477,12.456799767124652,-1.4894792638212442
1684116034234482200,17.222482177734374,1.4295739534348249,10.910933430171012,-2.4330218046769496
1684116034254611000,17.24261083984375,3.726193775761127,9.667252635225653,-2.890802105283737
1684116034274739000,17.262739013671876,2.258864968949556,9.042168433526157,-2.6122137119621036
1684116034294868200,17.2828681640625,-0.8969804039061069,9.95073932198286,-1.3293075526960194
1684116034314997200,17.302997314453126,-2.4314807127147913,10.407361976987122,-0.6243504805974662
1684116034335126300,17.323126220703124,-2.0742770478397605,9.387918976494669,-1.4837487573452293
1684116034355254300,17.343254150390624,-1.6868179454326628,7.634303038552403,-5.124032282239199
1684116034375383000,17.363383056640625,-1.7449001320451496,7.330109663853049,-4.838639469599723
1684116034395512000,17.383511962890626,-0.6120832658290862,6.997847548010945,-2.5024828789159654
1684116034415641000,17.40364111328125,-1.5629560034424066,6.067926997533441,-2.7361300144881007
1684116034435770000,17.42377001953125,-1.7669021204948425,5.559921361294388,-8.528722652059793
1684116034455898000,17.443898193359374,-6.762544754186273,3.956233826752007,-15.037330639100073
1684116034476027100,17.464027099609375,-4.35713897844851,2.8232132546573876,-7.708716182240844
1684116034496156200,17.48415625,-7.638304675409198,3.630490006762743,-8.506194593909383
1684116034516285200,17.50428515625,-14.410903206098078,-0.4631107018493116,-16.12301575178504
1684116034536413200,17.5244130859375,-13.798809418874978,-5.64393761510849,-19.657550645136833
1684116034556542200,17.544542236328127,-8.15294697318375,-6.977189959907531,-15.39148426875472
1684116034576671200,17.564671142578124,-6.140992818266153,-4.44154861549437,-9.977660062134266
1684116034596800000,17.584800048828125,-4.836735097283125,-1.437884101140499,-11.096060864984988
1684116034616928000,17.604927978515626,-2.7386311836540695,0.2161567793279886,-13.71667357198
1684116034637057000,17.62505712890625,0.12057868253588676,2.730557182791829,-12.21114625967741
1684116034657186000,17.64518603515625,-4.051877682256698,3.9215316389441486,-12.14198796777725
1684116034677315300,17.6653154296875,-4.662690782019496,7.394829681044817,-7.490318345987796
1684116034697443000,17.685443115234374,-4.439885650718212,9.333616308420895,-4.333193746976554
1684116034717572000,17.705572021484375,-4.391534000003338,10.739009175801277,-4.503445684219897
1684116034737701000,17.725701171875,-5.843792663455009,12.289729382526874,-5.510072750020027
1684116034757830100,17.745830078125,-4.789281272190809,14.51888427286744,-2.9637042598873373
1684116034777958100,17.765958251953126,-2.1534967150270936,15.630868194413184,0.9233329887807369
1684116034798087200,17.786087158203124,0.7451619489759206,15.442133090496062,4.4039720412939785
1684116034818216200,17.80621630859375,0.10062748913615942,14.295779281836747,4.672326040849089
1684116034838345000,17.826344970703126,-1.3421125276029109,12.117750183099508,3.3386522557675837
1684116034858473000,17.846472900390626,-1.85457134385854,11.495721861839293,2.5968469237431884
1684116034878602000,17.86660205078125,0.30262714829593895,11.150786142385005,3.041607291518152
1684116034898731300,17.886731201171877,2.2584446977108716,9.80717022448182,4.0030315260231495
1684116034918860300,17.9068603515625,4.544648924484849,8.219609941136836,3.1656457591190934
1684116034938988300,17.92698828125,2.3203291992157697,7.646778489243983,0.34396219824701546
1684116034959117000,17.947116943359376,-0.7168482931613922,9.437198263448476,-0.18768939425647257
1684116034979246000,17.96724609375,-1.6324129860281944,11.823077500939368,3.4436993149116635
1684116034999375400,17.987375244140626,-0.8142360697239637,11.773366252309083,5.819518053898215
1684116035019503400,18.00750341796875,1.3344558753699063,9.106118050867318,4.427584972071648
1684116035039632400,18.02763232421875,1.3670897324711084,7.312377607807517,3.4940330793544647
1684116035059761400,18.047761474609374,-2.3781162022739646,7.84826318461895,5.346938535827398
1684116035079890200,18.06789013671875,-4.006241720241308,7.619187887006998,7.243153849455714
1684116035100018200,18.08801806640625,-1.810917203310132,5.241558006945252,6.544559590387344
1684116035120147200,18.108147216796876,-0.44979602385461326,2.2881600370168687,3.3956934088945387
1684116035140276200,18.128276123046874,1.2456547253668309,-0.7426955588623881,4.798922376239299
1684116035160405200,18.1484052734375,-0.21432313416004178,0.22599223690479991,8.669615808349848
1684116035180534300,18.1685341796875,-2.843665675577521,2.024316500623524,11.516198832678795
1684116035200662000,18.188662109375,-3.6368273930907247,-1.1379863778084516,7.138823121887445
1684116035220791300,18.208791259765626,-0.47744566280245776,-5.830415295487642,4.065950339011848
1684116035240920300,18.22892041015625,-0.7301420744985342,-7.967931182050704,9.105918144381047
1684116035261048300,18.24904833984375,-9.927711497616768,-5.378838233435154,14.060884484291076
1684116035281177300,18.26917724609375,-17.57574320179224,-6.261360488399863,12.678985889744759
1684116035301306400,18.289306396484374,-16.001756685769557,-8.940796555763482,10.624141272127627
1684116035321435100,18.30943505859375,-15.30645854563713,-8.250138350391387,12.351883933144807
1684116035341563100,18.329563232421876,-14.041491217035054,-5.862572767248749,13.426708629119396
1684116035361692200,18.349692138671877,-12.85822602008581,-3.8974832393586634,9.191631849762796
1684116035381821200,18.3698212890625,-9.092337362796068,-2.264068382811546,6.153178346100449
1684116035401950500,18.389950439453123,-6.1210647134810685,-0.6146317812681198,5.730743207380176
1684116035422079200,18.410079345703124,-4.422237765824795,2.892639257583022,6.682537151491641
1684116035442207200,18.430207275390625,-1.1374760901987553,5.897762154051661,7.1399231920838355
1684116035462336300,18.450336181640626,1.5294585152491926,7.863020608767867,7.167735328117012
1684116035482465300,18.47046533203125,-0.6884703399389982,10.573509986042975,6.364046371370554
1684116035502594300,18.49059423828125,-5.169059172445535,13.107872981083393,6.6196437652051445
1684116035522722300,18.510722412109374,-4.813571663838625,13.66834997831583,5.860622802224755
1684116035542851300,18.530851318359375,-1.1597408212378622,12.143625798112152,5.164024100887775
1684116035562980000,18.55097998046875,0.46655908873751756,11.10452708003521,4.076396037441492
1684116035583109000,18.571109130859377,-1.633503557743877,11.452006638753414,2.5832754945084453
1684116035603237000,18.591237060546874,-3.6374411410748957,12.187682381981611,2.0887977406233547
1684116035623366400,18.611366455078127,-2.1217022313594818,11.978859598803519,1.4350155599668621
1684116035643495400,18.631495361328124,0.2622773099899292,11.401961043602228,0.6078393446490168
1684116035663624200,18.651624267578125,1.3342422326192258,11.021482886123657,0.757760295394808
1684116035683752200,18.671752197265626,0.8463667996086179,11.19137884953618,0.7616555492676794
1684116035703881200,18.691881103515627,0.12632102558016775,10.746409222924708,-0.28496435809433457
1684116035724010200,18.71201025390625,1.8013275371879338,9.675379243057966,-1.8273592195451258
1684116035744139300,18.73213916015625,1.939016929000616,8.500033733192085,-0.9450047223627567
1684116035764267300,18.752267333984374,-0.35684301486909387,7.781872603866457,-0.8103478301137685
1684116035784396300,18.772396240234375,-1.749330807968974,7.41362205979824,-2.302640982311964
1684116035804525000,18.792525146484376,-0.1596989790469408,7.475147080340981,-2.2710057808592916
1684116035824654300,18.812654296875,-1.5828911224901676,6.770593036085367,-1.7528581053122878
1684116035844782300,18.8327822265625,-5.891478543737531,5.635336960023642,-4.423027162636816
1684116035864911400,18.852911376953124,-6.947628349858522,4.395559602257609,-5.516372726947069
1684116035885040400,18.873040283203125,-4.353924108055233,3.5225066019058224,-3.619599487175047
1684116035905169200,18.893169189453126,-4.699400510257482,2.8324598064303395,-3.7448318407356735
1684116035925297200,18.913297119140626,-7.836551704037189,1.9071517181843518,-10.122628505039215
1684116035945426200,18.93342626953125,-5.285844892439246,-4.1841736905932425,-16.722473344796896
1684116035965556000,18.953555908203125,1.1946341477036475,-3.993684436485171,-11.359532937717438
1684116035985685000,18.97368505859375,0.5653910727590322,-2.047766642054915,-10.146716652113199
1684116036005813000,18.99381298828125,-8.385990005382896,-0.7771712444379926,-12.639530662190914
1684116036025941800,19.013941650390624,-13.495981487309932,-1.4999603258252143,-12.621225774693489
1684116036046070800,19.03407080078125,-11.515071874475478,-1.9960458071678875,-11.076225699180364
1684116036066199800,19.05419970703125,-5.982571019548177,-1.6933607912048696,-9.602899113258719
1684116036086327800,19.074327880859375,-2.1194512375622985,-0.5089718509227037,-10.56919387640953
1684116036106456800,19.094456787109376,-2.3808763146370646,1.6035872890383005,-10.837890405791997
1684116036126585900,19.1145859375,-5.900810435706377,4.583659330880642,-9.954266327065229
1684116036146715000,19.13471484375,-9.218470756849646,6.502274692365527,-6.775951932770013
1684116036166843000,19.1548427734375,-7.877993136972188,7.69238522516489,-5.124379488241672
1684116036186972000,19.174971923828124,-4.222461043411493,8.830797134909034,-4.868427581880987
1684116036207101000,19.195100830078125,-5.6673611607939005,9.864643923807144,-6.104414022931456
1684116036227230000,19.21522998046875,-4.3157682726621625,12.024746905231476,-2.5596710392981765
1684116036247358000,19.23535791015625,-2.9280285508722064,12.96175303005576,1.4981557606212794
1684116036267486700,19.25548681640625,-3.4526322706907986,11.967167991966008,0.6004588790088892
1684116036287615700,19.27561572265625,-4.137349395576119,11.79120001516342,0.2718210911437869
1684116036307745000,19.2957451171875,-0.1734323208451271,12.791271375709771,4.97872715472579
1684116036327872800,19.315872802734376,0.47672991574853657,12.876641966742277,6.834225258040428
1684116036348002000,19.336001953125,-1.119354450313747,11.724084042745828,3.875055718973279
1684116036368130800,19.356130859375,-1.1310426961503923,11.122787543869018,3.032434681764245
1684116036388259800,19.376259765625,2.8975866508573294,10.128404750353097,3.7415050344005225
1684116036408387800,19.396387939453124,6.498000083786248,9.936332026445864,4.138416148024797
1684116036428516900,19.416516845703125,5.867844570171832,10.293299544477462,1.5561925006568431
1684116036448646000,19.43664599609375,1.876406451308727,10.558576620805264,-1.5266402429580688
1684116036468775000,19.45677490234375,-3.39969183088094,10.272075554662942,-0.521821103362739
1684116036488903000,19.47690283203125,-5.873094161263108,9.657599840739369,2.158177274058759
1684116036509031700,19.49703173828125,-5.268365349850058,7.766628857505321,4.8740568199396135
1684116036529161000,19.517160888671874,-5.0035617362529035,5.275998036685586,4.574633436121046
1684116036549290000,19.5372900390625,-6.814897457236051,4.50975179862678,5.9561535527437925
1684116036569418000,19.55741796875,-8.484279114699364,3.4188498280763624,6.668734836110472
1684116036589547000,19.577547119140625,-4.501093860396742,0.8597486976206302,6.666216131287813
1684116036609675800,19.59767578125,0.17475626292526722,-0.06964549089521169,6.604606355071067
1684116036629804800,19.6178046875,1.4881325253874063,-3.4454522960588334,7.207983751875162
1684116036649932800,19.637932861328125,-3.137956080421805,-3.963512585583329,9.375396179530023
1684116036670061800,19.658061767578126,-11.524959646761417,-3.6185353650748726,9.595836919787526
1684116036690190800,19.67819091796875,-14.845795675331352,-5.278166028374433,7.27331810157299
1684116036710319900,19.69831982421875,-12.093345225161313,-8.296165357550978,10.087752421969174
1684116036730448000,19.71844775390625,-14.499114573514461,-6.403000079143047,14.307196163386106
1684116036750577000,19.738576904296874,-14.767173974037169,-2.5944027454614638,14.043931011402606
1684116036770706000,19.758705810546875,-11.85763209697008,-1.8577260084971785,8.060306098887324
1684116036790835000,19.7788349609375,-4.761977085679769,-2.229720707529783,6.932460006821155
1684116036810963000,19.798962890625,-6.154851832270622,-0.1394996561050415,9.361889632225036
1684116036831092000,19.819092041015626,-7.926171184685826,2.9533874485343694,7.925442285889386
1684116036851220700,19.839220703125,-5.880855442914366,5.713643604019284,2.908433623564243
1684116036871349800,19.859349853515624,-2.373074700975418,5.604406399708986,1.9484771235242484
1684116036891477800,19.879477783203125,0.9774988787323236,7.327360657405853,3.7599294566243886
1684116036911606800,19.899606689453126,0.4087912287712097,7.643705073148012,4.918060796838999
1684116036931735800,19.91973583984375,0.6840168676614761,8.676637085288762,5.331505988895893
1684116036951864800,19.93986474609375,0.19598931282907722,10.497162074899673,5.839301781776547
1684116036971991800,19.95999169921875,-1.1539107999101281,11.596495773708819,5.940838494712114
1684116036992121000,19.98012109375,-2.862135690508783,12.619196314692497,3.7657293750748035
1684116037012249900,20.000249755859375,-3.9375905010804533,14.032534003597497,3.120589642818272
1684116037032377900,20.0203779296875,-3.0479467236727475,13.74162564240694,1.9818384181171655
1684116037052507000,20.0405068359375,-0.7657815431565046,12.366189521872997,-0.4661132446661591
1684116037072636000,20.060635986328126,0.6348197060331702,10.703704053664207,-2.6107693583726883
1684116037092765000,20.080764892578124,2.2372177852869033,10.071863947963713,-2.552580204254389
1684116037112893000,20.100892822265624,2.5879165983125567,9.651696754175424,-1.7477467536479234
1684116037133022000,20.12102197265625,1.0889046592533589,8.24681534344852,-4.715729421506822
1684116037153150700,20.141150634765626,-0.06330196708738803,8.472319796836375,-3.2558789877519008
1684116037173279700,20.16127978515625,1.2878601284116507,9.10024009874463,0.8320914598882198
1684116037193407700,20.18140771484375,1.8479881660759447,8.904043572905659,1.5836726282566784
1684116037213537000,20.201537109375,-0.3480792781770229,7.366921098899841,-1.1289717350952326
1684116037233666000,20.221666015625,-0.48548693043887614,6.563128681778907,-3.0407433681651947
1684116037253794800,20.241794921875,-1.0006973834902047,5.473910718792677,-2.7631124216988683
1684116037273922800,20.2619228515625,-1.5138918205440044,4.188027443411946,-3.105479751969874
1684116037294051800,20.2820517578125,-1.1936866377204656,4.144750611743331,-4.0062534106791015
1684116037314180900,20.302180908203123,-3.720053957831859,5.048959797859192,-10.988571965646743
1684116037334310000,20.322309814453124,-4.444427970322966,3.192490511424839,-16.147470978605746
1684116037354438000,20.34243798828125,-4.169271889537573,0.5730927331775426,-11.524545805263518
1684116037374567000,20.36256689453125,-6.048164312443137,0.7583399949789047,-9.683274380221963
1684116037394695700,20.38269580078125,-14.677792393797635,-0.44863077946752306,-10.386632492691279
1684116037414825000,20.402824951171876,-15.690888071089981,-0.8193728480905293,-12.596354368287324
1684116037434953000,20.422952880859373,-9.338044646257162,-2.052904881726205,-13.177475509619713
1684116037455082000,20.44308203125,-2.8270009565025567,-3.679212828877568,-13.766024755126237
1684116037475211000,20.4632109375,-0.16522621803581714,-4.564817852288484,-14.221636187261343
1684116037495339800,20.48333984375,1.0300690239250658,-1.707032758204639,-14.59872528682351
1684116037515468800,20.50346875,1.5417308445841074,2.021621562451124,-13.388920457994937
1684116037535596800,20.5235966796875,-1.3179618366867303,4.528503260847926,-12.031819620096682
1684116037555725800,20.543725830078124,-4.87948995090425,7.718373652902245,-7.219864743804931
1684116037575854800,20.563854736328125,-7.3870263138175005,10.986674607592821,-5.345382538557052
1684116037595984000,20.58398388671875,-8.773971670359373,12.985546578097342,-7.643287724518776
1684116037616111900,20.60411181640625,-3.474608540177345,14.905254410994052,-4.384577604994178
1684116037636241000,20.624240966796876,0.16648177105486392,15.068848059391975,-0.34587226965203877
1684116037656370000,20.644369873046877,0.07073007126152515,14.394169513440131,1.269498250029981
1684116037676499000,20.6644990234375,-0.37336569512486456,13.196587037324905,0.15661328799128532
1684116037696627000,20.684626953125,1.3421484756991267,12.430290530383585,0.659844841696322
1684116037716756000,20.704755859375,3.4160876698866485,12.537592382717131,2.986685907024145
1684116037736884700,20.724884765625,2.358605446118116,13.210354865914583,4.435618933184444
1684116037757013800,20.745013671875,0.02061667157113552,13.555995518767833,4.486428498445451
1684116037777141800,20.765141845703123,-1.2912605845049023,11.33755725275278,3.3975253004968162
1684116037797270800,20.785270751953124,2.8684231002151965,8.264431664159893,2.443674423855543
1684116037817400000,20.805400146484374,5.36696484028995,7.177780336791277,3.4295009859502312
1684116037837528800,20.82552880859375,2.6723975470289587,8.39974380544722,3.881479906801879
1684116037857656800,20.84565673828125,-2.0674340500771997,9.034287324887513,2.590443486441672
1684116037877785900,20.865785888671876,-2.8923697929918766,7.900065852570533,1.6131617575913666
1684116037897915000,20.885914794921874,2.1672516841351985,7.301581488505005,3.1561320808425544
1684116037918044000,20.9060439453125,4.839637248465419,6.575318301266432,5.295047020548582
1684116037938172000,20.926171875,1.3039029161959885,5.347106293609738,5.091580211445689
1684116037958301000,20.946301025390625,-4.721621694415807,5.702068317037821,5.016352828764915
1684116037978430000,20.966429931640626,-5.068699686595798,4.840083823189139,8.098552535173296
1684116037998559000,20.98655908203125,-1.3440285903573035,2.4981726145014167,9.066479283440113
1684116038018687000,21.00668701171875,0.9095008627831935,-0.30059856507778165,8.508592887222767
1684116038038816000,21.02681591796875,-0.5247223777621984,-3.1564269721359013,7.667737106120586
1684116038058945000,21.046945068359374,-8.041708365923165,-2.8274101218253374,7.483416896036267
1684116038079073000,21.067072998046875,-12.744333098924159,-2.15621737216264,9.434534012675284
1684116038099202000,21.0872021484375,-9.063061583951114,-7.809702275556325,8.32924637389779
1684116038119331000,21.1073310546875,-4.956853176569938,-9.706910691875219,12.189757434689998
1684116038139460000,21.127460205078126,-11.35855795520544,-5.585719234895706,15.396026003837585
1684116038159588000,21.147588134765623,-12.573109101778268,-0.8456970836535096,15.852050108426809
1684116038179717000,21.167717041015624,-8.401507307988405,0.44413376030921936,13.487343422824143
1684116038199846100,21.18784619140625,-5.757801894697547,0.017042612476646898,10.310865596306323
1684116038219975000,21.207974853515626,-5.92320346930027,1.0224012657761574,7.712918894627689
1684116038240103000,21.22810302734375,-5.261468576073646,2.004801360553503,3.0287557009905575
1684116038260232000,21.24823193359375,-2.7853146088957783,3.879050341567397,5.394574731749296
1684116038280361000,21.26836083984375,-2.7871009077906606,5.53500260861516,9.690577981233597
1684116038300490200,21.288490234375,-4.393921187400817,6.405839686483144,9.324049438652395
1684116038320618200,21.3086181640625,-5.355252190664411,9.629112581923604,8.048821997320651
1684116038340747000,21.3287470703125,-3.670326342588663,12.44749534768462,7.402415606129169
1684116038360876000,21.3488759765625,-0.8744371481865644,14.957660305535793,5.263259551143646
1684116038381005000,21.369005126953127,1.1207008964866398,15.721834998017549,3.1801942166924473
1684116038401133000,21.389133056640624,2.449970601390302,14.769091205835341,1.6534914298921823
1684116038421262000,21.409261962890625,4.544963105000555,13.56530812151432,-0.09312073023524135
1684116038441391000,21.42939111328125,5.293415619954467,12.275658771598339,-1.3420672271564602
1684116038461520000,21.449519775390623,4.562444108894467,11.21458203046918,-2.6640388840064406
1684116038481647900,21.46964794921875,4.094662638755143,11.964389174902438,-1.8614498513258992
1684116038501777000,21.48977685546875,3.247790666103363,11.776050376826523,0.690385087519139
1684116038521906200,21.50990625,3.1933594032138584,10.144131896317004,0.7220252574078738
1684116038542035200,21.53003515625,0.34959435891509055,9.210292711091041,-2.135819896300137
1684116038562163200,21.5501630859375,-2.0535463945001364,7.8776529452323905,-4.614631684510409
1684116038582292000,21.5702919921875,-1.868407853770256,7.513337987047433,-4.891111999636888
1684116038602421000,21.5904208984375,0.7585469157278537,6.602872078624367,-4.2100478443011635
1684116038622550000,21.610550048828124,1.1395493893414734,5.7321326159119605,-3.6982547984778877
1684116038642678000,21.630677978515624,-2.3216595710366965,5.467981328743696,-1.7421483491189778
1684116038662807000,21.65080712890625,-6.41966655178368,5.35310874889493,-1.3410764625534415
1684116038682936000,21.67093603515625,-7.4917095080852505,5.2775493577808135,-3.1691683802872896
1684116038703064800,21.69106494140625,-6.652947484391928,5.135839624410868,-5.0763633530914785
1684116038723192800,21.71119287109375,-3.4588749644726513,3.7369448868781325,-6.010072189936041
1684116038743322000,21.731322021484374,-0.8308686400949955,2.3930969137847424,-6.307691446942091
1684116038763451100,21.751451171875,-2.5949983732670545,-0.25833587888777254,-6.285486629396677
1684116038783580200,21.771580078125,-6.729291303882002,-2.5235312199026345,-11.490257751214504
1684116038803708200,21.791708251953125,-11.80151565747261,-5.054140999889373,-20.467120476615428
1684116038823837000,21.8118369140625,-12.047051091498135,-8.1617516264081,-19.330272162926196
1684116038843966000,21.831966064453123,-8.67041251168549,-4.5582425655514,-8.456677991068362
1684116038864095000,21.852094970703124,-9.53950596075654,-0.20037614961117506,-7.754580692315101
1684116038884223000,21.872222900390625,-11.411527328848837,3.241402426370978,-11.357704553246498
1684116038904352000,21.89235205078125,-9.230557500484585,3.362258464543521,-11.716180137753486
1684116038924481300,21.912481201171875,-3.9682074654012918,5.441694210320711,-11.144292104190587
1684116038944610000,21.932610107421876,-2.0694325304180383,8.799058180820941,-8.953382481092214
1684116038964738000,21.952738037109373,-4.501026640379429,11.237604009616375,-6.456287432694435
1684116038984867000,21.9728671875,-4.994180744445323,12.103437580108642,-5.44266451665759
1684116039004996000,21.99299609375,-4.5805146031141275,14.442405428820848,-5.10483892146945
1684116039025125400,22.01312548828125,-2.0004531022161243,15.699678111267088,-1.3226876961648464
1684116039045253400,22.03325341796875,0.7983160315364599,15.892701267766952,3.092695089198649
1684116039065382100,22.053382080078126,3.243368758007884,14.379467618870734,5.649432120871544
1684116039085511200,22.07351123046875,4.480998582351208,10.697725563776492,3.8313422494530673
1684116039105639200,22.09363916015625,4.645760690006614,7.512341961747407,0.7240401774268597
1684116039125768200,22.113768310546874,4.688927047038078,8.696375220459698,-1.2171394095003605
1684116039145897200,22.133897216796875,3.830608674481511,10.840454118800162,0.234789291344583
1684116039166026200,22.154026123046876,0.9577093056350946,11.68536414372921,2.463087564855814
1684116039186154200,22.174154296875,0.48750879165530203,11.65527997111082,2.8806539284959434
1684116039206283000,22.194282958984374,1.4960253244638442,8.706686186593771,0.5298901357889175
1684116039226412000,22.214412109375,4.389371269011497,7.096638761630654,-0.9902551921918987
1684116039246541300,22.234541259765624,6.217365279328822,8.714418826672434,1.925353729829192
1684116039266669300,22.25466943359375,5.162314374360442,8.30300777079165,4.96089748352468
1684116039286798300,22.27479833984375,3.348038508272171,7.252478142639994,3.6808310777291653
1684116039306927000,22.294927001953123,0.24612463209033011,5.241928009301423,2.960015049980581
1684116039327056100,22.31505615234375,-5.284480033826828,7.351197460067271,4.349347886180878
1684116039347184000,22.33518408203125,-10.217610974025726,6.224993289989233,5.584204154157638
1684116039367313200,22.355313232421874,-7.627531352460384,4.797721183755994,6.678893242031336
1684116039387442200,22.375442138671875,-4.8650931767612695,2.340848109500855,7.592803737950325
1684116039407571200,22.3955712890625,-5.996734569457173,0.6116307728212327,7.256414313045144
1684116039427699200,22.41569921875,-7.9664155167907476,-1.0210081309173256,7.2050424377262585
1684116039447828000,22.435827880859375,-7.094152205511927,-1.5425699257567524,7.056414887791871
1684116039467957200,22.455957275390624,-6.451268727749586,-1.979059162662178,7.574370840159058
1684116039488086300,22.476086181640625,-6.677966190314293,-2.090518134675175,9.311147871503234
1684116039508214300,22.49621435546875,-7.148599250492453,-1.760643936882913,9.615991819065808
1684116039528343300,22.51634326171875,-5.723119872894883,-0.5049218448795378,9.500651621705293
1684116039548472000,22.53647216796875,-5.483463560035824,0.6363505688622594,9.434554470941423
1684116039568601000,22.55660107421875,-5.5400797657489775,0.8773384225860238,8.435133683258295
1684116039588729000,22.57672900390625,-5.6338663029491896,0.5698255480751395,6.08254764356017
1684116039608858000,22.596858154296875,-5.577569246187806,1.3962626354634762,6.70829527760446
1684116039628987100,22.616987060546876,-6.212953892627358,3.8236864740028973,8.000328892308474
1684116039649116200,22.6371162109375,-6.629100160336494,6.1866422242850065,7.84339411727786
1684116039669244200,22.657244140625,-5.420979339072108,6.76590458600819,7.337053199380636
1684116039689373200,22.677373291015623,-4.63534158732295,8.806938120415806,7.299310620963573
1684116039709502200,22.697502197265624,-3.8665678766131397,11.8162292424798,6.955317735317349
1684116039729631200,22.71763134765625,-3.0197417889297005,13.593687828302382,6.644337476956844
1684116039749759200,22.73775927734375,-1.6684522676587104,14.626651404625177,4.857485332106053
1684116039769888300,22.75788818359375,-1.7995523442089556,15.37734585328698,3.3575653382912276
1684116039790017000,22.77801708984375,-1.9643758266627787,15.498073004382848,1.2958929204806684
1684116039810145000,22.79814501953125,-1.5243454100191591,14.888516042160987,-1.1984051906749607
1684116039830274000,22.818274169921875,-0.3185790429264307,13.47921739951372,-2.114659327110648
1684116039850403000,22.838403076171875,1.6548334921509027,12.280180632936954,-1.8455600621461867
1684116039870532400,22.858532470703125,2.8385344501689076,11.993690088188648,-3.380131098103523
1684116039890660000,22.87866015625,3.424529627278447,11.034447581636906,-4.798233809453249
1684116039910789400,22.898789306640627,4.067962555617094,10.312427438795567,-4.554028747248649
1684116039930918100,22.918918212890624,3.939289413952827,10.174732786285876,-2.636650526343286
1684116039951047200,22.939047119140625,2.378690787291527,8.040519448399543,-2.9995331136375665
1684116039971175700,22.95917578125,0.6080529873996973,5.517582102736831,-7.823277211922407
1684116039991304700,22.9793046875,-0.3211766582041979,5.092533566647767,-7.84149208304882
1684116040011433700,22.999433837890624,1.4306886366784572,5.712742855787277,-2.2494094506010414
1684116040031562500,23.0195625,0.7498638430565595,5.521894120717048,-0.5345023057594895
1684116040051690500,23.0396904296875,-2.6789082440972325,4.931723411488533,-4.382252669177949
1684116040071819500,23.059819580078123,-5.0802130142569535,3.3902161465272305,-7.108528521388768
1684116040091948500,23.079948486328124,-5.698311010330915,2.2279162884563206,-6.488161995860934
1684116040112077800,23.100077880859374,-4.5558279056251045,2.051498522059619,-5.3798026945531365
1684116040132205800,23.120205810546874,-4.1758021680891515,0.2902268086671829,-5.515290192407369
1684116040152334600,23.14033447265625,-4.134240323644876,-1.3615443733036516,-7.313242115682363
1684116040172463600,23.160463623046876,-4.937039638075232,-2.161588105415553,-7.533996744194626
1684116040192592600,23.180592529296874,-7.450538124263286,-2.8764538464576006,-7.669776502993702
1684116040212720600,23.200720703125,-7.978685800299048,-3.3121900730386375,-6.666938015821576
1684116040232849700,23.220849609375,-6.188762869700789,-2.7902199165940282,-5.727544119077921
1684116040252978700,23.240978759765625,-3.71774042019248,-2.7541882337480783,-6.557611964184045
1684116040273107500,23.261107421875,-1.7837240759581325,-2.3578403069645164,-7.361614809185266
1684116040293235500,23.2812353515625,-2.7610727325648066,-1.3623808241277933,-7.507391061341762
1684116040313364500,23.301364501953124,-4.640490640649199,0.2324588025704026,-6.1287371478050945
1684116040333493800,23.32149365234375,-7.274628015127778,1.900433515845239,-4.349443747770786
1684116040353621800,23.341621826171874,-6.328756446802616,2.27070036817193,-4.397345316630601
1684116040373750800,23.361750732421875,-5.574295923605561,2.415174890080094,-6.193796187692881
1684116040393879600,23.381879638671876,-3.518350651270151,3.390101287975907,-6.578274228462576
1684116040414008600,23.402008544921873,-2.7643168290525675,4.442404355540871,-5.194336237043142
1684116040434136600,23.422136474609374,-4.568211586380005,6.412234940478205,-4.886886490896344
1684116040454265600,23.442265625,-6.4299301716446875,7.612716060644388,-4.643594159622491
1684116040474394600,23.46239453125,-6.731718238767981,8.075069952777028,-5.724644305983185
1684116040494523600,23.482523681640625,-4.488042071121931,10.07019221535921,-6.748788031512499
1684116040514651600,23.502651611328126,-1.0963298408180475,11.98035363675356,-7.0750804252952335
1684116040534780400,23.522780517578123,-0.022912089031934736,12.73028703791499,-5.829199489957094
1684116040554909700,23.54290966796875,-0.1398532918483019,13.86812903881669,-4.573117770861089
1684116040575038700,23.563038818359374,0.31035949611365793,14.2443542150259,-2.6168881335139274
1684116040595166700,23.583166748046875,2.385637245428562,13.202626317489147,-0.8377946399658918
1684116040615295700,23.603295654296875,3.770120011249184,12.853365136051178,-0.47403848470747467
1684116040635424500,23.623424560546876,3.9663486857920884,15.026063395154475,1.2004554012030362
1684116040655553500,23.643553466796874,3.896409472647309,12.65846800237298,5.586452225345373
1684116040675681500,23.663681640625,4.495502324,11.325265926456451,4.795667173835635
1684116040695810600,23.683810546875,3.152734547358751,10.001232660901547,2.5262033617213366
1684116040715939600,23.703939697265625,1.4091957667946815,8.652661166417598,1.974479872047901
1684116040736068600,23.724068603515626,0.9678782329499721,8.522025784769653,2.4089321962982413
1684116040756196900,23.74419677734375,1.6641168688029049,7.695206712326407,4.885111297917366
1684116040776325600,23.76432568359375,2.8192221391946077,7.769431639966368,7.548072615820169
1684116040796454700,23.78445458984375,2.0099737947553393,6.387156028801202,6.5743889114618295
1684116040816582700,23.804582763671874,-0.7030769574403762,4.959727855223417,4.699868127769231
1684116040836711700,23.824711669921875,-0.7524696416407823,3.8165751806929706,8.941573969876766
1684116040856840700,23.8448408203125,-0.05175006098151207,1.6133181171968578,11.81335807095766
1684116040876969500,23.864969482421873,-1.4343471591860055,-0.06887772139310837,11.131841787940264
1684116040897097500,23.885097412109374,-5.564145700991153,-0.8665176072336733,8.722316301923989
1684116040917226500,23.9052265625,-8.79411721728742,-1.9512660235904156,9.880823489713668
1684116040937355500,23.92535546875,-7.19711456733644,-4.868516136947274,12.4701385566473
1684116040957484800,23.94548486328125,-6.916593160125613,-7.211369887182116,15.321962404239176
1684116040977612800,23.96561279296875,-9.147964557471871,-6.889983970141411,18.143218095088002
1684116040997741800,23.985741943359375,-13.730386455512045,-4.820383389680087,17.770307157993315
1684116041017870600,24.00587060546875,-10.028037665718793,-3.4965848096638914,14.110610930490493
1684116041037999600,24.02599951171875,-5.760644424647093,-2.7106878224566575,10.426620804208516
1684116041058127600,24.046127685546875,-2.7796488382190465,-2.5323162916436788,8.854496574926376
1684116041078256600,24.066256591796876,-2.0645956117808817,-1.0069383237063885,9.584745032408833
1684116041098385700,24.0863857421875,-4.948038586473465,3.9982489679217337,10.70534071495533
1684116041118513700,24.106513671875,-5.856783662453293,8.586675074812769,10.384344674015045
1684116041138642400,24.126642333984375,-4.095565432813763,11.326991435074806,10.45114032843709
1684116041158771500,24.146771484375,-0.8846388087272643,12.955465912610292,9.478210072794557
1684116041178900700,24.166900634765625,3.0260546253383156,16.2540129524827,9.417600413531064
1684116041199028700,24.18702880859375,3.893455299016833,19.879879391098022,9.781291686859726
1684116041219157800,24.20715771484375,0.6021159985661506,20.78126124483347,6.658074325886369
1684116041239286800,24.227286865234376,-2.6444974404513832,18.6475599481225,2.8748738837897774
1684116041259415600,24.24741552734375,0.3735556647390127,15.65194956088662,-0.1863745122656226
1684116041279543600,24.26754345703125,4.354723149478435,13.593769661366938,-1.073478834323585
1684116041299672600,24.287672607421875,6.617996582520008,14.291516948217152,0.3979160528831184
1684116041319801600,24.307801513671876,1.4130454279601574,12.88931673939824,-2.1809048003040252
1684116041339930600,24.3279306640625,-2.358234274718165,9.734376790949701,-1.6257110041715204
1684116041360058600,24.34805859375,0.8209042954415082,8.863767676618695,-2.556163907960057
1684116041380187400,24.3681875,2.4098791217595337,8.778409360545874,-3.1859894589677453
1684116041400316700,24.388316650390625,-0.3332172246098518,7.508904388514161,-3.671584233695268
1684116041420445700,24.40844580078125,-1.2582090865135191,6.724344495129585,-2.22731160056144
1684116041440573700,24.42857373046875,-3.909287074398994,7.068617366760969,-3.09816709086895
1684116041460702700,24.44870263671875,-5.22100972443521,6.521609507432579,-3.0698715552330014
1684116041480831700,24.468831787109377,-2.120043942758441,8.12777103087306,0.7298138654574752
1684116041500959700,24.488959716796874,0.09297171368598937,7.387038004255294,-2.7570789867535233
1684116041521088500,24.509088623046875,-0.4192606003373861,5.553637166458368,-4.5024154643893235
1684116041541217500,24.529217529296876,-0.7243371876120567,5.329920181009173,-3.5330756344541907
1684116041561346600,24.5493466796875,-0.7784481325060129,4.287839232251048,-4.562755074539781
1684116041581474600,24.569474609375,-2.5059125611037016,3.9639872173577544,-11.019151812827586
1684116041601603600,24.589603515625,-3.3182121098071335,1.597075422926247,-11.560042650580405
1684116041621732600,24.609732666015624,-4.731368596926331,-0.44775385050252076,-12.381176663124561
1684116041641861600,24.629861572265625,-5.53005930699408,-0.7401084649786352,-11.96306114116907
1684116041661989600,24.64998974609375,-8.534487791457773,-1.1874313036527484,-13.457870660102367
1684116041682118700,24.67011865234375,-6.510760781159997,-3.100303518375754,-11.245969686901569
1684116041702247700,24.69024755859375,-4.272340049824118,-3.046837885648012,-10.838359192347525
1684116041722376700,24.710376708984374,-7.925892367744446,-2.428492929075658,-9.706996616593003
1684116041742504700,24.730504638671874,-11.89560731509924,0.7102228836722672,-9.573335749644041
1684116041762633500,24.750633544921875,-7.918763538777828,2.046529939866811,-10.971957515454292
1684116041782762500,24.770762451171876,-4.678066630327701,2.816609910869598,-11.791254960221051
1684116041802890500,24.790890380859373,-0.38522915139794345,6.0371396450817585,-8.85506589924693
1684116041823019500,24.81101953125,-0.7732961565703154,8.168769396215676,-6.9709460970818995
1684116041843148800,24.831148681640624,-0.8983855945289134,9.769042446139455,-6.660549776089191
1684116041863277600,24.851277587890625,-0.5478834731191397,11.464157679796218,-6.675321228763461
1684116041883405600,24.871405517578125,-0.459209164366126,13.584736460083722,-3.9419802604719996
1684116041903534600,24.89153466796875,-0.23295476939380166,14.33768131802082,-1.903936993921548
1684116041923663600,24.91166357421875,2.12935128480792,14.34392985702157,-0.1951398563928902
1684116041943792600,24.931792724609377,3.383956793871522,13.358473881804942,0.9917257031358778
1684116041963920600,24.951920654296874,4.115224657529592,12.269624167609214,0.6575641834132373
1684116041984049400,24.97204931640625,3.622958442214131,11.034555133664607,0.7834691755384207
1684116042004178200,24.99217822265625,4.66948994064033,10.12328901477456,2.211257414600253
1684116042024307200,25.01230712890625,4.640795761075616,11.09344688309431,2.525835697452724
1684116042044435200,25.032435302734374,2.8222388566672802,10.722923133397101,1.972396636033058
1684116042064564200,25.052564208984375,0.8715613004893064,9.326568143475056,0.35930896659120914
1684116042084693200,25.072693359375,0.40450083810091014,9.246505011200904,1.362142631457746
1684116042104821200,25.0928212890625,1.3930921887338161,10.798668986994027,3.3283962346911427
1684116042124950300,25.1129501953125,2.177522902780771,10.873112525820732,4.930339263653755
1684116042145079000,25.1330791015625,3.5440731215476986,8.98231748367548,4.93027262815833
1684116042165208300,25.153208251953124,4.4081005194008345,6.828612094333767,5.344620322012901
1684116042185336300,25.17333642578125,0.14975275457203388,7.299455582392215,5.830835566726327
1684116042205465300,25.19346533203125,-3.2451801913440224,8.272747072562575,6.834111860793828
1684116042225594400,25.213594482421875,-1.8027853347808123,5.964142213410139,5.97579524180293
1684116042245723100,25.23372314453125,1.7058827113866806,1.7160940165385603,2.7441350417673585
1684116042265851100,25.25385107421875,3.080002488625049,-2.3893615266487003,2.665188930824399
1684116042285980200,25.273980224609375,-0.7233318099617958,-0.6246040169671178,6.475854887473583
1684116042306109200,25.294109130859376,-5.616150613516568,0.5955725682720542,10.889563309884071
1684116042326237200,25.3142373046875,-3.909151465320587,-1.1301084840402007,16.351730983912944
1684116042346366200,25.3343662109375,-6.325955417907237,-4.96248153784573,17.557452342820167
1684116042366495200,25.3544951171875,-8.911887272143364,-7.0434536994099615,16.39786145144701
1684116042386624300,25.374624267578124,-11.426617345952987,-4.778095276787877,11.04917285708189
1684116042406752300,25.394752197265625,-7.63902655994296,-1.5953179117344318,10.688006133794785
1684116042426881300,25.41488134765625,-4.871440499961376,-1.2758620859734713,9.66175462233126
1684116042447010300,25.43501025390625,-5.717607831475139,-0.43939153421819205,8.8635519880414
1684116042467139300,25.455139404296876,-2.6107027228772637,1.5351158103585243,10.040701916980742
1684116042487267300,25.475267333984377,-0.3792325413316488,2.5404554666966197,9.70605144469738
1684116042507396000,25.49539599609375,-0.2494587449491024,3.7435046837851402,8.948065669983626
1684116042527525000,25.515525146484375,-0.6710077484846114,4.531699426540732,8.100082813480496
1684116042547653000,25.535653076171876,-0.3197200296550989,5.432248921105265,7.524023631712794
1684116042567782100,25.5557822265625,1.1656401084095238,7.219030046546459,7.48046506049335
1684116042587911200,25.5759111328125,2.0292823063373566,9.567377133500575,8.072125716018677
1684116042608040400,25.59604052734375,1.9408523277342318,11.165705479097365,7.43161948878169
