time,seconds_elapsed,z,y,x
1682096132865964300,0.02496435546875,1.0562345617949962,-1.6162392653405666,0.04910919108390808
1682096132886092300,0.04509228515625,2.5362790577948093,-2.635941793552041,0.5381634586155414
1682096132906221000,0.065220947265625,3.870534442156553,-3.033573622666299,0.7216571547478438
1682096132926350000,0.08535009765625,4.326352210518717,-2.9343638913735743,1.0340607239097357
1682096132946479000,0.10547900390625,3.842746271520853,-2.69809488286525,1.758683742725849
1682096132966607000,0.125607177734375,3.0791046630024907,-1.5159078365415333,2.976072158551216
1682096132986736000,0.145736083984375,2.3049562735170124,-1.9086781970992683,3.054101739171147
1682096133006865200,0.165865234375,3.7371728504151105,-1.1412243368163704,0.09174012606441974
1682096133026994000,0.185993896484375,4.929755326285958,0.9930173503816128,-1.762042405503988
1682096133047122000,0.206121826171875,5.425521658676862,5.191676662445068,-2.096362038397789
1682096133067251000,0.2262509765625,2.6131951242148874,6.7167094702064984,-0.044890112084150315
1682096133087380200,0.246380126953125,-1.1337059240102767,4.66540588619709,-1.7138357162177562
1682096133107508200,0.26650830078125,-2.291958260256052,6.554236934792995,-7.982389330992103
1682096133127637200,0.28663720703125,-1.6237480335354804,6.902355375936627,-7.206115035393834
1682096133147766000,0.30676611328125,0.5797498529791831,6.65812751737833,-2.5863188077270984
1682096133167895000,0.32689501953125,-0.38651919120848177,5.603277103418112,2.802520010718703
1682096133188023000,0.34702294921875,-3.1992847016096113,2.837580218183994,2.2330250097721813
1682096133208152000,0.367152099609375,-5.04916730313003,0.817428436024487,-2.911238744112849
1682096133228281000,0.387281005859375,-5.190046430894732,-1.5652707101255654,-4.628435461196303
1682096133248410000,0.40741015625,-2.319893730407953,-2.730774624934792,-0.6673001261383295
1682096133268539000,0.427538818359375,1.7666928616583346,-3.3600290980562564,6.598730741035938
1682096133288667000,0.4476669921875,1.4320108251929282,-5.960816283857822,4.636265716430545
1682096133308796200,0.467796142578125,0.12265227393954992,-7.7439482391417025,2.3796242687493563
1682096133328925200,0.48792529296875,-2.563948570486903,-8.895950867342949,1.9507769248992204
1682096133349054200,0.50805419921875,-3.7378199161469934,-8.255013262951374,3.840807996934652
1682096133369182200,0.52818212890625,-1.7328791471228002,-7.66353322468996,4.712724686732888
1682096133389311000,0.54831103515625,0.24138532860875128,-7.269633275580405,5.0221816810488695
1682096133409440000,0.56843994140625,0.04747252979278564,-7.874421708226204,4.9356321093648665
1682096133429568000,0.588568115234375,-2.347839137431979,-5.518402186948061,4.192974836686253
1682096133449697000,0.608697021484375,-5.518395172685384,-4.422242441999912,0.04628010513782501
1682096133469826300,0.628826416015625,-5.199605701878666,-1.0886536071017383,-2.4611516283571717
1682096133489955300,0.648955322265625,-3.013416677561402,0.0818362794265151,-3.9727158827364444
1682096133510083300,0.669083251953125,-1.3750339694738387,0.17696955506056547,-3.4156887336969373
1682096133530212400,0.68921240234375,-3.144808430534601,1.5345152141168712,-2.4618016166985033
1682096133550341400,0.70934130859375,-4.407479172632098,3.10669964915365,-4.430718593922257
1682096133570470400,0.729470458984375,-4.295996235221624,5.716100934043526,-5.569706842249632
1682096133590598400,0.749598388671875,-5.0525236278206105,5.808777464175224,-5.501231856438517
1682096133610727400,0.7697275390625,-4.539232160133123,5.908254906493425,-5.1714270706206555
1682096133630856200,0.789856201171875,-2.5124831716656684,5.0274663434535265,-1.914794341892004
1682096133650985200,0.809985107421875,-0.5376666150093078,3.0319369613751768,1.98343416287601
1682096133671113200,0.83011328125,-0.012158639827370643,1.9662284687921403,2.093857362100482
1682096133691242200,0.8502421875,1.7191852605521678,2.144534240892529,0.962684171438217
1682096133711371500,0.87037158203125,6.58871203584671,2.0958213556498286,2.894737106645107
1682096133731500300,0.890500244140625,10.546748235845564,0.5137953255563974,6.41923926628232
1682096133751628300,0.910628173828125,11.180101084196567,0.16188260669633744,7.429637375053763
1682096133771757300,0.93075732421875,8.142239116686582,1.0543246365204453,6.915956615787744
1682096133791886300,0.95088623046875,5.923298746368289,2.2622084341585635,7.002610816890001
1682096133812015400,0.971015380859375,6.510154631960392,2.176044939182699,7.762088875988125
1682096133832143400,0.991143310546875,5.760887585753202,1.5207029618635772,7.494197233247757
1682096133852272400,1.0112724609375,4.018440399818122,2.7164357184588908,4.722237195965647
1682096133872401200,1.031401123046875,5.1030467773556705,7.174089081057906,-0.10490648162961005
1682096133892530200,1.0515302734375,5.866578495758771,8.018242150139809,-2.0062176570922134
1682096133912658200,1.071658203125,2.4539573329389093,7.301898883891106,-2.3802239882081744
1682096133932787500,1.091787353515625,-3.271235254576802,10.63180084697008,-6.228790344184636
1682096133952916500,1.11191650390625,-8.254337555646895,9.641645900282263,-11.160187592458724
1682096133973045200,1.132045166015625,-7.356811208295822,7.5254831828713415,-10.74519341739416
1682096133993173200,1.15217333984375,-5.157052508309484,4.964753574430942,-8.696405615597962
1682096134013302300,1.17230224609375,-5.320184968936443,2.1811773336350915,-8.963326367479562
1682096134033431300,1.192431396484375,-6.348587520954013,-0.6046224284291267,-8.103055691811441
1682096134053560300,1.212560302734375,-5.581715259951353,-3.6657968824654814,-6.024605157679319
1682096134073688300,1.232688232421875,-3.813735865613818,-6.468491665229201,-3.6011312258094548
1682096134093817300,1.2528173828125,-2.177619933414459,-8.551246618556975,-0.5945172140002251
1682096134113946400,1.2729462890625,-1.550956791960448,-9.335674994516372,2.3468828596204516
1682096134134075400,1.293075439453125,-2.0332335281811655,-9.410761507421732,2.56240660174191
1682096134154203400,1.313203369140625,-1.9717161064229904,-9.214072814151644,2.725439693647623
1682096134174332400,1.33333251953125,-1.3508213192373513,-9.431245492523908,2.2419044817984104
1682096134194461400,1.35346142578125,0.04043561689332127,-10.473230579692125,4.005893345195055
1682096134214590200,1.373590087890625,1.7033263049021363,-10.154855534905195,8.236265892383456
1682096134234718200,1.39371826171875,-0.11439677903056145,-10.771930617672204,12.96238782082796
1682096134254847200,1.41384716796875,-3.75877034971714,-9.718764795798062,7.324468443095683
1682096134274976300,1.433976318359375,-5.952932252609729,-5.400866525369882,-2.1695535313367844
1682096134295105300,1.454105224609375,-5.044198282545804,-1.3546874931462107,-4.528742330300807
1682096134315233300,1.4742333984375,-6.1666802172303194,0.004516162250190973,-3.882794788792729
1682096134335362600,1.494362548828125,-8.271250112003088,0.30736572112515564,-5.800657286083698
1682096134355491300,1.5144912109375,-6.466793629139661,2.332012622746825,-8.885813504210114
1682096134375620400,1.534620361328125,-3.026649668622017,5.907958553895354,-11.575448309504985
1682096134395748400,1.554748291015625,-3.322519451612234,6.440791757398843,-12.09417057006955
1682096134415877400,1.57487744140625,-2.94706350620985,6.123818396103382,-11.423771893393992
1682096134436006400,1.59500634765625,-2.9206007389590143,5.194178416132926,-8.716242534968256
1682096134456135200,1.61513525390625,-1.1485784989714622,5.691173998057842,-3.173339528492093
1682096134476263200,1.63526318359375,-0.0022030630022287366,6.12585487036705,2.3156501014888287
1682096134496392200,1.65539208984375,0.23748773664832115,6.316792452764511,4.436251678130031
1682096134516521200,1.675521240234375,0.29895255143642424,5.445748454147577,5.156877736264467
1682096134536650200,1.695650146484375,1.5413628880545496,5.31869911429286,5.641508926656842
1682096134556778200,1.7157783203125,4.163378155323863,5.379139846730232,8.222796754479408
1682096134576907300,1.7359072265625,6.034157998922467,5.6638300640583035,10.642633206629753
1682096134597036000,1.7560361328125,6.648941171360016,5.742370516809821,11.445718352264166
1682096134617165300,1.776165283203125,6.046764382517337,6.018045653033256,10.271375297439098
1682096134637293300,1.796293212890625,4.650177337405085,5.4733828955262895,8.862111141583323
1682096134657422300,1.81642236328125,2.9684581764161586,4.567141034539044,6.446655680996179
1682096134677551400,1.83655126953125,2.5361738438546655,3.630182255987823,4.293538905197382
1682096134697679400,1.856679443359375,3.4142841275960203,5.747196914052963,2.0989847881168124
1682096134717808000,1.87680810546875,5.0669794386744496,8.206244263607264,-0.17238018144369124
1682096134737937200,1.896937255859375,2.5464298649311066,5.898684529593586,-2.4805986716270447
1682096134758066200,1.917066162109375,-2.5484271762281656,6.350572557291388,-8.892769314697384
1682096134778195200,1.9371953125,-7.431822902399301,5.835094393214583,-12.281564780771731
1682096134798323200,1.9573232421875,-6.823261380955577,4.984337395823002,-11.558307789611815
1682096134818452200,1.9774521484375,-5.028588040959835,2.960760607650876,-7.5066978183805935
1682096134838581200,1.997581298828125,-5.195356812262535,0.3515957618653774,-7.184273205941915
1682096134858709200,2.017709228515625,-4.661891156074405,-2.3435098760560154,-9.293993907606602
1682096134878838300,2.03783837890625,-2.5169185237646103,-4.62637092988193,-8.286010458761453
1682096134898967300,2.05796728515625,-0.024262261531874538,-6.328607978242635,-2.9150533339649436
1682096134919096300,2.078096435546875,-0.16009345825724303,-6.77289955946207,1.4520482355713844
1682096134939224300,2.098224365234375,-0.5348959081869572,-7.902292880970239,3.432534070035815
1682096134959353000,2.11835302734375,-0.33267084277346726,-9.372181893658638,4.257375704926252
1682096134979482000,2.138482177734375,-0.09330269920602441,-10.353252785658835,3.8533600199937816
1682096134999611100,2.158611083984375,0.042899376658350225,-10.509397287094593,5.292282232010364
1682096135019739100,2.1787392578125,-0.3031729456104338,-9.264996945703029,6.59951049323678
1682096135039868400,2.198868408203125,-1.1146472955361009,-8.584802266678214,7.409029471310973
1682096135059997400,2.21899755859375,-2.340160127236694,-8.097584566923976,6.1807730399906635
1682096135080126200,2.239126220703125,-3.3427585220426317,-7.681499089491367,5.2541895249813795
1682096135100254200,2.259254150390625,-3.661877663195133,-6.539878739094734,3.476414128294587
1682096135120383200,2.27938330078125,-3.478517822575569,-3.6441567130655046,-0.09522212296128273
1682096135140512300,2.29951220703125,-3.1027009349063035,-1.5482804123580456,-2.446557870337367
1682096135160641300,2.319641357421875,-4.632461647972464,-1.814024229414761,-5.545641491529345
1682096135180769300,2.339769287109375,-5.888442537042498,-0.5659896597066894,-9.111886697396635
1682096135200898000,2.35989794921875,-5.768217490249872,2.024896638599038,-13.11668055691719
1682096135221027000,2.380027099609375,-3.5551033418670293,5.193167777785659,-13.852989921873807
1682096135241156400,2.40015625,-2.0856500902473925,5.528132138323784,-9.297994375419616
1682096135261284400,2.420284423828125,-1.3347893451079726,4.797407003240287,-5.840948379939794
1682096135281413400,2.440413330078125,-1.1244809995472431,4.2783676395505665,-3.765534437024593
1682096135301542400,2.46054248046875,-0.8816494176529347,4.168128272460401,-2.190093046018481
1682096135321671200,2.480671142578125,-0.52669630818367,4.489706789463758,0.5453367112457752
1682096135341800200,2.50080029296875,0.591992079436779,4.023734999094903,3.8031595265418288
1682096135361928200,2.52092822265625,1.9111213524676858,4.215796324825287,6.242225579819083
1682096135382057200,2.54105712890625,3.634059097421169,4.715049038027226,8.85799552295804
1682096135402186200,2.561186279296875,4.386771900168061,5.222960858502984,10.579085155826807
1682096135422315000,2.58131494140625,4.86911994805932,6.006134265965223,11.39925120012164
1682096135442443000,2.601443115234375,5.556936208003759,6.291494345378875,11.672951236879825
1682096135462572300,2.621572265625,5.0683255925863975,6.470821569481491,11.104501361072062
1682096135482701300,2.641701416015625,4.325086720627546,6.858064983311295,10.848170976787804
1682096135502830300,2.661830322265625,4.040673566675186,7.967520847684145,9.965111546206474
1682096135522958300,2.681958251953125,5.255243417948484,10.757180792307853,6.928333282279968
1682096135543087400,2.70208740234375,4.9975090120851995,12.301050402486323,1.6469184812426567
1682096135563216100,2.722216064453125,-0.7854232322156429,11.105553500473498,-2.1507038694381713
1682096135583345200,2.74234521484375,-4.658410328221321,13.991253898704052,-4.343037387859821
1682096135603473200,2.76247314453125,-6.885167509770393,13.462128317546844,-6.506568005645275
1682096135623602200,2.782602294921875,-7.613231608951091,12.241840673148632,-10.796190614181757
1682096135643731200,2.802731201171875,-8.925325430387257,7.956740510472655,-15.44435661176443
1682096135663860000,2.82285986328125,-8.219680083763599,3.610207097190618,-15.334852280950546
1682096135683988000,2.842988037109375,-5.102388605707883,0.8497802613139152,-12.654085257244109
1682096135704117200,2.8631171875,-2.8048949231564997,-2.492833883821964,-10.699282730090617
1682096135724246300,2.883246337890625,-1.050921842339635,-7.182039163279533,-10.791177754455804
1682096135744375300,2.903375244140625,0.6007657530009746,-11.187091965997219,-7.594858332392573
1682096135764503300,2.92350341796875,0.9377765246748924,-11.826883907485007,-3.4045763880521056
1682096135784632300,2.94363232421875,-0.7411836929947138,-11.813767236280441,-2.030164934390783
1682096135804761000,2.963760986328125,-2.5959441296845673,-12.900407457733154,-2.137970060071349
1682096135824890000,2.98389013671875,-3.444225676873326,-13.475615575629472,-1.722721033462882
1682096135845018000,3.00401806640625,-3.216825618997216,-13.35584820947647,-1.1677549086064098
1682096135865147100,3.024147216796875,-2.1605881345927713,-12.81950845915675,-0.10426526111662388
1682096135885276200,3.044276123046875,-2.3353613486528397,-11.600417915588617,0.6176444070875644
1682096135905405200,3.0644052734375,-2.4071903210669756,-10.265455259740351,1.7363287030547856
1682096135925533200,3.084533203125,-1.6257319008290767,-8.41822638759911,-0.6511568005889654
1682096135945662200,3.104662109375,-2.4819804813742636,-1.773031417030096,-6.728147394543885
1682096135965791200,3.124791259765625,-6.35340281228125,4.012273986142874,-8.069159851950406
1682096135985920300,3.144920166015625,-6.934716845837235,5.545657858142256,-8.269378472912312
1682096136006048300,3.16504833984375,-4.394186560338735,7.230965983533859,-11.088006153345107
1682096136026177300,3.18517724609375,-1.6667033781647682,10.627466032636166,-12.907803997725248
1682096136046306000,3.20530615234375,-0.9871136792957782,12.67305065447688,-10.683771857225894
1682096136066435000,3.22543505859375,-2.0321938098698853,12.775573455840348,-7.074648463618755
1682096136086563000,3.24556298828125,-2.900052748709917,9.637263155153393,-1.355157887136936
1682096136106692400,3.2656923828125,-2.267299035295844,7.058419213351607,3.4873552090257403
1682096136126821400,3.2858212890625,-0.761024630952999,6.191828102490305,4.9437756683319805
1682096136146950100,3.3059501953125,0.11395955665707587,3.594316285097599,5.4949178509861225
1682096136167078100,3.326078125,1.9458581731975078,1.1677367884278296,7.372111068758368
1682096136187207200,3.346207275390625,3.926661987569928,0.9685673842579126,8.700423619067669
1682096136207336200,3.366336181640625,5.083368263417482,0.9343933119773864,10.689013849532603
1682096136227465200,3.38646533203125,4.37245052934885,0.3867039001256227,9.704432319062947
1682096136247593200,3.40659326171875,2.1654710843287406,-0.7909501789435743,9.002598639681935
1682096136267722200,3.42672216796875,3.803696702158451,-0.33899814609885215,12.25027298592925
1682096136287851000,3.44685107421875,5.665154590660333,2.306222055669129,14.116189607405662
1682096136307980300,3.466980224609375,4.055251542603969,2.7948814786642786,13.020211064243316
1682096136328108300,3.4871083984375,2.1782886264562604,3.733188456954062,8.777074312549829
1682096136348237300,3.5072373046875,2.78324189427495,6.92413290798068,3.077339991417527
1682096136368366300,3.527366455078125,3.653865621653199,6.669721509060263,2.2900340141952036
1682096136388495000,3.5474951171875,2.6713626510232684,8.791723600149155,0.642334027186036
1682096136408623000,3.567623046875,-0.009458733218908309,12.295042686504125,-1.8552935206532477
1682096136428752100,3.587752197265625,-4.458075387403369,11.55139874087572,-7.161255902969836
1682096136448881200,3.607881103515625,-6.182628312468529,9.306095848810672,-7.8623437324196095
1682096136469010200,3.62801025390625,-5.461995824593306,7.83621501942873,-6.2747565610677
1682096136489138000,3.648137939453125,-4.786339958041906,4.438983733442425,-7.668013000452518
1682096136509267000,3.668266845703125,-4.16966819537878,0.4491489581227302,-10.794882454192638
1682096136529396000,3.68839599609375,-3.4275054282188413,-3.8593174670934673,-10.81500403572321
1682096136549525000,3.70852490234375,-1.7370026567935943,-5.8861102947026485,-6.636668549764156
1682096136569653000,3.728653076171875,0.08595394387841224,-7.627059643295407,-2.393078209084272
1682096136589782000,3.748781982421875,0.3550829829266295,-9.343558441242575,0.2295814935684204
1682096136609911000,3.7689111328125,-1.5744588097095489,-10.86880810662508,0.8831587993025779
1682096136630039800,3.789039794921875,-3.566335222238302,-11.76063419650793,-0.2529214526236057
1682096136650168000,3.80916796875,-4.113580981975794,-13.005276529961824,-0.9105050713896751
1682096136670296800,3.829296875,-3.471926753747463,-12.56521688722372,0.5376268675208091
1682096136690425900,3.84942578125,-3.5442508162021635,-11.98204641214609,1.7928455400466918
1682096136710555000,3.869554931640625,-5.268632476353645,-11.891712061226368,0.2562391988694668
1682096136730683000,3.889682861328125,-6.370623411673307,-10.931873342347144,-1.6349194158911704
1682096136750812200,3.909812255859375,-4.105431577789783,-7.282151396369934,-0.6246124925345182
1682096136770941000,3.92994091796875,-2.1486685642182826,-1.901524525952339,-2.011888103944063
1682096136791070000,3.950070068359375,-5.444526803398132,2.1380893025368453,-7.172025134265422
1682096136811198000,3.970197998046875,-6.610770138397813,3.0832068376243114,-11.196682801163195
1682096136831327000,3.990326904296875,-3.6579192809581755,6.444063910937309,-11.852111872243881
1682096136851456000,4.0104560546875,-0.22354447842650113,11.705351285225152,-12.170041511350869
1682096136871584800,4.030584716796875,-0.24360943439900873,12.016450201529263,-10.290222621250152
1682096136891713000,4.050713134765625,-2.1051099929988384,9.837373639565707,-7.437181799083947
1682096136911841800,4.070841796875,-3.142916917699575,7.386567464134097,-5.431593087545037
1682096136931970800,4.090970703125,-1.9822259561300277,6.076073479110002,-1.3131032907396554
1682096136952100000,4.11110009765625,-0.3191560390967876,5.735146410775184,2.6728502592325207
1682096136972228000,4.13122802734375,0.3473743447780609,4.572975147520006,5.1276352751672265
1682096136992357000,4.151357177734375,0.7326070763725787,2.8164284168228506,7.2123010305523865
1682096137012486000,4.17148583984375,1.7436464787222443,2.539292852658033,8.76131034170687
1682096137032615000,4.191614990234375,2.718260595798492,3.138721219575405,10.445967309713364
1682096137052743000,4.211742919921875,3.067024349108338,2.9538080120339987,11.372872896283864
1682096137072872000,4.231871826171875,3.1480525270223616,2.686637961566448,10.710758063828944
1682096137093001000,4.2520009765625,2.7412521798074243,2.5009537696525452,10.266848759925365
1682096137113129700,4.272129638671875,3.286259220707416,2.998537965120375,11.635130332529544
1682096137133258000,4.292258056640625,3.394062592822313,4.799530279004574,12.815752321493624
1682096137153386800,4.31238671875,3.113276981717348,6.422518434083462,11.664611278557777
1682096137173516000,4.33251611328125,5.345604656875134,7.738832503563165,6.665262776085734
1682096137193645000,4.35264501953125,5.857388642609119,8.017350754258036,2.43028887258172
1682096137213774000,4.372774169921875,-0.33401451246738434,9.582326865351199,-0.4014461267054081
1682096137233902000,4.392902099609375,-2.280195341747999,10.80259931218028,-5.623303992402553
1682096137254030800,4.41303076171875,-1.0676070196807383,9.082257867330313,-11.6611357114017
1682096137274159900,4.433159912109375,-3.4465351228594776,8.642980899402499,-11.202551400935649
1682096137294289000,4.453288818359375,-9.149714031487703,9.348277870979905,-8.315125494086741
1682096137314417000,4.4734169921875,-9.514754381337761,5.798177159705758,-6.677219755861163
1682096137334546000,4.4935458984375,-5.59386220934093,0.9654904610306024,-10.189335312134027
1682096137354675000,4.513675048828125,-2.078729351073503,-5.16815491708219,-8.879307775577903
1682096137374804000,4.533803955078125,-0.4584996278572827,-7.961025640445947,-4.145272005268931
1682096137394932000,4.553931884765625,-0.8742302274376154,-8.44595785961151,-2.146284299430251
1682096137415061000,4.57406103515625,-1.1529326025277375,-9.609082770329714,-1.3906407039284705
1682096137435190000,4.59418994140625,-0.40548162929918613,-12.928969535350799,-1.7587720055311917
1682096137455319000,4.614319091796875,-0.06616327480264007,-15.638260058230161,-1.8342559933215379
1682096137475446800,4.63444677734375,-1.112720492191985,-15.4267718552351,-0.9300660964280366
1682096137495575600,4.654575439453125,-2.729151407647133,-12.882392493093013,0.2073603094100952
1682096137515704600,4.67470458984375,-5.294245056515932,-11.147448522394894,0.5536936207026243
1682096137535833900,4.694833740234375,-7.08329354236722,-11.03202999910116,-0.30425708758533
1682096137555961900,4.7149619140625,-5.226746806782484,-10.797699849700926,-1.6656266888439655
1682096137576091000,4.7350908203125,-2.4111218152970073,-9.16266002230048,-3.907269304835796
1682096137596220000,4.755219970703125,-2.2364510386981067,-1.7238760487169027,-5.23949055302143
1682096137616348700,4.7753486328125,-6.146742760095,5.357457591754198,-5.8492649573862545
1682096137636476700,4.7954765625,-8.185856140094995,5.4685541601955885,-9.82792893487215
1682096137656605700,4.815605712890625,-3.604528467032313,7.073035767725109,-14.602369196283817
1682096137676734700,4.835734619140625,0.40975159823596474,11.285889024835825,-15.938113942420483
1682096137696863700,4.85586376953125,0.6435405534315853,12.857653188633918,-10.990269417214392
1682096137716991700,4.87599169921875,-1.0199649054747075,11.81940202729702,-5.148289356139302
1682096137737120500,4.89612060546875,-3.1261458156406876,8.859415326628088,-1.1546090113073586
1682096137757249800,4.916249755859375,-3.5472757169812916,7.068547224134206,2.5467057592630384
1682096137777378800,4.93637890625,-2.3776135134488343,5.818273022273183,5.346144170579314
1682096137797506800,4.9565068359375,-0.5147913143238052,4.151334081786871,7.972120450434089
1682096137817635800,4.9766357421875,1.4122212520956992,2.8141470278874037,9.864989960765838
1682096137837764900,4.996764892578125,2.4719407333970067,2.276014256671071,11.166152053821087
1682096137857893600,5.0168935546875,3.577894727128744,1.4782161115288734,11.88702536471486
1682096137878021600,5.037021728515625,4.7624207377940415,0.5132718862041831,12.62901745148301
1682096137898150700,5.057150634765625,5.71809006203413,0.24837124197334048,12.83275255613327
1682096137918279700,5.07727978515625,4.423116886746883,1.5367679614797234,12.552453267240523
1682096137938409000,5.097408935546875,1.2148317170798777,3.4142616235032675,11.482305915427208
1682096137958537700,5.117537841796875,-1.9672043280869722,3.780066820245981,11.821461882436274
1682096137978665700,5.137665771484375,1.8221844472557305,5.830872976127266,9.68872680040896
1682096137998794800,5.157794677734375,6.479089631611108,10.897917296731471,8.546362938168645
1682096138018923800,5.177923828125,1.0809914019107818,13.638296200835704,6.490396623045205
1682096138039051800,5.1980517578125,-7.173610357630253,16.023594423568248,1.0650175877094268
1682096138059180800,5.218180908203125,-9.138133483809233,15.432606552737951,-5.45603837749362
1682096138079309800,5.238309814453125,-5.75335660572648,14.262860178053378,-10.010877272081375
1682096138099438600,5.2584384765625,-3.212556855636835,11.492162123531102,-10.84668746023178
1682096138119567600,5.278567626953125,-3.084772187244892,8.019286690756678,-13.496583544856309
1682096138139695600,5.298695556640625,-2.6218787814080713,2.3500316790401934,-17.7046489831686
1682096138159825000,5.318824951171875,-1.29202017070055,-4.041864822286367,-17.62867165890336
1682096138179954000,5.338953857421875,1.1200690283238888,-7.111743976303934,-12.584522476196287
1682096138200082700,5.359082763671875,1.8173744166254997,-8.046450592014192,-6.058823653623461
1682096138220210700,5.379210693359375,0.1908569549093023,-8.603820270881057,-2.8499183062314986
1682096138240339700,5.399339599609375,-2.0722692151486872,-10.829333005326985,-3.988271763786673
1682096138260468700,5.41946875,-3.727379186153412,-14.09927588200569,-5.145715706259012
1682096138280597800,5.43959765625,-3.4380361745834347,-14.939057311874627,-3.9073827020823955
1682096138300725800,5.459725830078125,-2.650555425316095,-13.376523917758464,-1.8295622825473545
1682096138320854800,5.479854736328125,-3.8770775801897046,-12.994087611949443,-1.0697142210930586
1682096138340983600,5.499983642578125,-5.633427911531925,-13.21832423735857,-1.2390069579154253
1682096138361112800,5.52011279296875,-5.941543428111076,-12.88868194862604,-2.4191356104046107
1682096138381240800,5.54024072265625,-3.423942182779312,-10.510676220989227,-3.554982638096809
1682096138401369900,5.560369873046875,-2.2456372385859487,-3.120253834992647,-4.177509556528926
1682096138421499000,5.580498779296875,-4.179119914335012,1.9676240148037671,-4.236134763976931
1682096138441627600,5.600627685546875,-6.021723464763165,4.1993847037285565,-9.238580647942424
1682096138461755600,5.620755615234375,-4.30624407299161,6.569627980670332,-13.701568357306718
1682096138481885400,5.640885498046875,-2.1304367419570682,13.044351818287371,-15.334344915950297
1682096138502014500,5.661014404296875,-1.3602695310622452,16.40453084620833,-13.735290594166516
1682096138522143500,5.6811435546875,-2.2743027765780686,14.334171848595142,-10.125463436204194
1682096138542271500,5.701271484375,-1.8282313262045382,11.766805578619241,-3.4111750556647777
1682096138562400300,5.721400146484375,-1.1240472112398594,10.34156936212778,3.6370372364491224
1682096138582529500,5.741529541015625,-0.8322959694843739,8.956763355702162,7.224829088214039
1682096138602658600,5.761658447265625,-1.2317092021226883,6.392890773060918,7.300985860699415
1682096138622786600,5.78178662109375,-1.860240913927555,3.0452398028016088,6.140109605690837
1682096138642915600,5.80191552734375,-1.3609680347204207,-0.14904139143228531,8.358429213762284
1682096138663044400,5.82204443359375,1.5889000075161457,0.4021159887909889,12.651597532081603
1682096138683173400,5.84217333984375,3.004903116238117,1.9569886390209197,14.32966050865054
1682096138703302400,5.862302490234375,1.6182967823922634,1.5711346337229013,12.918185106486082
1682096138723430400,5.882430419921875,0.18915833429787307,1.206597264958918,11.822383088934421
1682096138743559400,5.902559326171875,0.42098903156518935,2.214621922597289,14.50539935287237
1682096138763688400,5.9226884765625,1.7900468492388724,3.5990000589996574,17.666072876536845
1682096138783817500,5.9428173828125,2.628272281837463,5.031574947816133,16.045478923118115
1682096138803945500,5.962945556640625,2.5142998656988143,7.596967287370562,9.46693581458628
1682096138824074500,5.983074462890625,3.6059131993889806,10.897363169980048,7.065493097260594
1682096138844203500,6.00320361328125,0.8657425312079489,10.715422548508643,5.282725299113989
1682096138864332500,6.02333251953125,-1.246214551206678,14.73376971708536,-0.07068389403223992
1682096138884460500,6.04346044921875,-4.286961864894629,15.307850876778364,-5.337748682677746
1682096138904589300,6.06358935546875,-7.4161483634054655,14.538953247427939,-10.321443104422093
1682096138924718300,6.08371826171875,-9.41154593579769,11.919591417276859,-12.7254179705739
1682096138944847400,6.103847412109375,-6.938750631397962,9.753668351396918,-13.236049279141426
1682096138964975400,6.123975341796875,-3.417332409250736,5.043083014780283,-13.733010958796738
1682096138985104600,6.144104736328125,-1.5948177071273326,-2.3624001622259616,-13.463074073964357
1682096139005233400,6.1642333984375,-1.1067512815892695,-7.4772548662751905,-11.610301011699438
1682096139025362400,6.184362548828125,-0.3625421032935381,-8.965146568644046,-8.788293625700474
1682096139045490400,6.204490478515625,0.47659869058430193,-10.125897151446342,-4.463477830968797
1682096139065619500,6.224619384765625,0.6647761606186628,-11.548280901116133,-1.589525738199055
1682096139085748500,6.24474853515625,-0.3949953431308269,-13.331637312805652,-2.4665520260959863
1682096139105877500,6.26487744140625,-1.9728151537060736,-14.746370839983223,-3.9342996428415176
1682096139126005500,6.285005615234375,-3.408432478958368,-15.615257952827214,-4.145660127803683
1682096139146134300,6.30513427734375,-3.9430315230906006,-13.961014243263005,-4.281932930816709
1682096139166263300,6.32526318359375,-4.136677779924869,-13.67612528849244,-4.5551752869352695
1682096139186392600,6.345392578125,-3.0704514009475705,-13.758789543175697,-4.851333531478047
1682096139206521600,6.365521484375,-2.0521300979614256,-11.981962240993976,-5.4511769089370965
1682096139226649600,6.385649658203125,-2.2080191633313895,-6.878879223281145,-8.996922347611187
1682096139246778400,6.4057783203125,-4.912666828840971,3.31519714590013,-11.567021841943264
1682096139266907400,6.425907470703125,-6.820322404894232,4.861117843389511,-11.542646110099554
1682096139287036400,6.446036376953125,-3.8737434673309323,5.870987544372677,-13.64345051485896
1682096139307164400,6.466164306640625,-1.6956944948494432,11.106436128526925,-16.49918949006796
1682096139327293400,6.48629345703125,-3.3693899238586424,16.80253063185215,-17.26921524666548
1682096139347422500,6.50642236328125,-5.42450108345747,15.84229443808794,-12.898533480554818
1682096139367551200,6.52655126953125,-5.199216994822025,13.222363283616303,-7.045018464508653
1682096139387679200,6.54667919921875,-3.160527393192053,11.258492483866213,0.9349567910790443
1682096139407808500,6.56680859375,-0.9968635044157504,10.839105042278765,7.926817665895819
1682096139427937500,6.5869375,-0.536450882543996,8.770963720715045,9.969778368973731
1682096139448066600,6.607066650390625,-1.347972359547019,4.978323834621906,10.91095564200282
1682096139468194600,6.627194580078125,-0.3194055568784475,3.659961892701685,13.927251089870929
1682096139488323300,6.6473232421875,1.7154969274282454,4.893371176740527,15.079005880790948
1682096139508452400,6.667452392578125,2.64664848100543,4.286006463865935,14.795458988279103
1682096139528581400,6.687581298828125,2.965685204571485,3.3037598060846327,13.716284280401467
1682096139548710700,6.707710693359375,1.9487749374270438,2.265014723750949,13.099750464904307
1682096139568838700,6.727838623046875,1.64788177331686,3.401778866288066,15.13648074916005
1682096139588967700,6.7479677734375,0.8893407028079032,5.482700758969783,16.477728184366224
1682096139609096400,6.768096435546875,-0.43237785606384277,5.826835683435201,14.806084427189827
1682096139629225500,6.7882255859375,0.7254933719098567,7.028717902570962,9.663867084440588
1682096139649353500,6.808353515625,3.347086906635761,10.912722067153453,4.622191598370671
1682096139669482500,6.828482421875,-0.11622983967661857,12.908581411838531,4.438718945026397
1682096139689611500,6.848611572265625,-3.7218612995147704,17.260952445232867,0.8879694144546985
1682096139709740300,6.868740234375,-5.486259328234196,16.604048040902615,-5.904051025062799
1682096139729868300,6.888868408203125,-5.074163212698698,14.386575405049323,-12.548423573333023
1682096139749997300,6.908997314453125,-5.013689747035503,11.522712744617461,-12.177529236757755
1682096139770126600,6.929126708984375,-4.373100517690181,8.75937323616445,-12.818434107923506
1682096139790255600,6.949255615234375,-2.3627298325717447,3.7923809428960085,-16.914322781342268
1682096139810383600,6.969383544921875,-0.726893959422782,-3.687927465730905,-17.761540498691797
1682096139830512600,6.9895126953125,-0.8204360203426331,-8.486864455017447,-13.588579106986522
1682096139850641400,7.009641357421875,-1.5719301680147646,-10.397096603560447,-9.449975911957026
1682096139870770400,7.0297705078125,-2.7846505920290947,-11.395796675753592,-7.08928021556139
1682096139890899500,7.0498994140625,-3.4107927783489225,-12.35838732368946,-5.737884311306476
1682096139911027500,7.07002734375,-3.611944296246767,-14.012346955615282,-5.409706249907613
1682096139931156500,7.090156494140625,-3.8089550610780716,-15.63637672870159,-4.532674701313674
1682096139951285500,7.110285400390625,-5.443536623317003,-15.236308904612063,-3.602562719917297
1682096139971414500,7.13041455078125,-8.106776173639297,-13.510820160001515,-2.8728683891862627
1682096139991542500,7.15054248046875,-9.320131388425827,-12.805585147744416,-2.99844414935708
1682096140011671600,7.170671630859375,-6.438270129966735,-12.396256158834696,-3.8136633848994967
1682096140031800600,7.190800537109375,-2.8357600170195103,-10.13662429716587,-4.673028051638603
1682096140051929600,7.2109296875,-1.832246991586685,-3.725905606469512,-6.403941743907332
1682096140072057600,7.2310576171875,-5.628653536736965,3.0968548392266033,-9.638284314894676
1682096140092186400,7.251186279296875,-6.546098052000999,7.905673171058297,-15.300328080058097
1682096140112315400,7.2713154296875,-0.524102200037241,10.448522839415073,-17.241984709912536
1682096140132444400,7.2914443359375,3.1763632602274416,14.343320785212516,-18.122548232024908
1682096140152572400,7.311572509765625,-0.5736521206259727,16.99147616364956,-13.963825793552397
1682096140172701700,7.33170166015625,-3.9834266618430614,16.166446897232532,-7.668385925418138
1682096140192830500,7.35183056640625,-4.6650458207130425,13.43690152183175,-2.7314789738118646
1682096140212959500,7.37195947265625,-4.73196773186326,10.417311708593369,3.1557477577000856
1682096140233088500,7.392088623046875,-3.285243321663141,9.51268868097961,8.646364696621895
1682096140253216500,7.412216552734375,-2.281605208545923,8.096618352240323,10.950723004245758
1682096140273345500,7.432345458984375,-2.0722505104482174,5.045897487679124,11.890728895407914
1682096140293474600,7.452474609375,-0.0051554830670356745,2.03637226459831,15.03612535496354
1682096140313603300,7.472603271484375,2.6795839514017104,3.5398414753273126,17.400062809759376
1682096140333731300,7.4927314453125,4.283827658522129,4.420168558335304,17.964490005922315
1682096140353860400,7.5128603515625,2.8301684806227683,3.615127310197055,15.391263319480418
1682096140373989600,7.53298974609375,0.6770235747080295,3.3535052492454644,13.307075703001022
1682096140394118700,7.55311865234375,-1.1348728488977997,3.41595381437391,12.555608516401051
1682096140414246700,7.57324658203125,-1.1771053591452538,3.994940281765163,11.742018343365192
1682096140434375400,7.59337548828125,0.5258990203261376,6.284453194695711,9.975064784944056
1682096140454504400,7.61350439453125,2.949706714195013,10.792591128385066,7.99004130704999
1682096140474633200,7.63363330078125,0.4857411974608898,11.773209600442648,5.617726484531164
1682096140494761200,7.65376123046875,-3.3611329676449295,13.762427607417106,-0.6135486622065305
1682096140514890200,7.67389013671875,-3.7152912734746932,14.701702846217154,-5.436226592564583
1682096140535019300,7.694019287109375,-3.9836686539053914,13.40683839200139,-11.21251048489213
1682096140555148000,7.71414794921875,-4.19180637742877,11.284438241505622,-11.693241160714626
1682096140575277000,7.734277099609375,-4.0887750420212745,9.089822165104746,-12.13848434357047
1682096140595405000,7.754405029296875,-3.1757436670243737,5.189630251309275,-13.623055377084016
1682096140615534300,7.774534423828125,-2.0348060381948945,-0.6654945380210876,-14.596791688412427
1682096140635663400,7.794663330078125,-0.6551635520122945,-4.366075733619928,-12.265450681316851
1682096140655792000,7.814792236328125,1.1449192458115518,-7.020575512647628,-8.863541466647385
1682096140675920100,7.834920166015625,0.9236603210389613,-9.428664243859052,-5.410324674066901
1682096140696049200,7.855049072265625,-1.9345289699316024,-11.749476842677593,-4.801781565062702
1682096140716178200,7.87517822265625,-4.279260204476118,-13.52069624184966,-6.957766297513246
1682096140736307200,7.89530712890625,-2.7221768924593923,-15.906043564420937,-7.572647669628262
1682096140756435200,7.915435302734375,-0.11357501431889831,-15.527372748625277,-5.4081975989103315
1682096140776564200,7.935564208984375,-0.9267804988861084,-14.339319148355722,-3.298022723737359
1682096140796693000,7.95569287109375,-6.080813951635361,-13.517491892850398,-3.991638025349378
1682096140816822300,7.975822265625,-10.47118826020956,-13.835163173282146,-5.692302125304937
1682096140836950300,7.9959501953125,-8.703637320417165,-11.392515169864891,-5.610260386434197
1682096140857079300,8.016079345703124,-5.156949047935009,-5.348963904175162,-4.434532599252462
1682096140877208300,8.036208251953125,-5.870817448502779,1.0075514871686697,-4.60365640924871
1682096140897337000,8.056337158203124,-8.587004160636663,3.8868823503673076,-10.35507298682332
1682096140917466000,8.076466064453125,-6.351017962971329,6.764157450079917,-16.612273432934284
1682096140937594000,8.096593994140624,0.1055494557082653,11.01595798522234,-16.76850911978483
1682096140957723100,8.11672314453125,2.704532514697313,15.886235286623238,-17.595959475868938
1682096140977852200,8.13685205078125,-0.7474667187869548,15.540699847710131,-14.044965615147351
1682096140997981200,8.156981201171876,-2.715760011154413,13.185173662906884,-10.074324785119295
1682096141018109200,8.177109130859375,-2.86576820179224,11.764770273399352,-2.784955712455511
1682096141038238200,8.19723828125,-2.6421137601852416,11.4405079241395,4.508376418620347
1682096141058367200,8.2173671875,-2.906352725636959,10.426025760924816,7.712156093561648
1682096141078496300,8.237496337890626,-2.649555892884731,7.927747640222311,8.52117705898583
1682096141098624300,8.257624267578125,-0.9601520226120949,5.750866542476415,10.254571462154388
1682096141118753300,8.277753173828126,2.2838030108511447,6.135919168263674,15.459599773603676
1682096141138882000,8.297882080078125,3.394861049723625,6.441271065348387,17.863522032785415
1682096141159011000,8.318010986328124,3.032950814592838,6.196952021375298,16.26910530767441
1682096141179140000,8.33814013671875,2.242141797685623,5.952218551382422,14.152030151593685
1682096141199268000,8.35826806640625,0.8498281921088695,5.265418190482259,12.388029597759246
1682096141219397400,8.3783974609375,-0.18947620460800826,3.9624160225182767,11.601686328089237
1682096141239526100,8.398526123046874,-0.15238595261983573,3.587036941744387,10.699981818270683
1682096141259655200,8.4186552734375,1.7033610839545725,4.345839878059923,9.762752406084537
1682096141279783200,8.438783203125,4.719967497467994,8.542716690620779,7.90117235250771
1682096141299912200,8.458912109375,4.714186575978994,11.335311519652604,3.3793455006837845
1682096141320041200,8.479041259765625,0.40111528731584545,10.227945321035385,-4.410257989695668
1682096141340170200,8.499170166015626,-0.8166495606064796,10.245855071735381,-13.056817332106828
1682096141360299000,8.519299072265625,0.4068598223172128,8.836687361991405,-15.013512541139125
1682096141380427000,8.539427001953126,-0.9012648032270372,7.339867087757587,-13.503945013535022
1682096141400556000,8.55955615234375,-5.069789819920063,4.604612979321182,-12.22917992901802
1682096141420685300,8.579685302734376,-6.34230683324933,1.1398685382932423,-12.43032326360941
1682096141440814300,8.599814453125,-3.96196301805377,-2.195815515318513,-11.413825668919086
1682096141460942300,8.6199423828125,-1.4837502186499536,-4.843485740587115,-7.163871053904295
1682096141481071600,8.640071533203125,-1.3260755850374697,-7.243784548574686,-2.920093666219711
1682096141501200600,8.66020068359375,-3.026268560349941,-9.650269351720809,-0.43728783993721004
1682096141521329700,8.68032958984375,-4.805852467763423,-11.022096634107827,0.796542007601261
1682096141541457700,8.700457763671874,-4.643457089239359,-11.93415536468029,1.4304887301921843
1682096141561586700,8.720586669921875,-2.9879870527505874,-12.362483653092383,3.0584856533437965
1682096141581715500,8.740715576171874,-1.7830618126571178,-12.676103027784823,4.627402611017227
1682096141601844700,8.7608447265625,-2.23377378231287,-12.352373762488364,4.943264796200395
1682096141621972700,8.78097265625,-3.2714111956655976,-11.82049975940585,4.011953668147325
1682096141642101800,8.801101806640625,-3.4576211650192734,-10.961583420956135,2.7702567404955625
1682096141662230800,8.821230712890625,-2.9181624058961866,-9.36208720062375,1.5861568462878464
1682096141682359800,8.84135986328125,-1.2565116349458694,-5.9936968091964715,0.11996961072683333
1682096141702488600,8.861488525390625,-1.9107775074660778,-2.7045406980037687,-2.720674086681008
1682096141722616600,8.881616455078126,-4.596557390898466,0.4857242463260889,-5.684769391712546
1682096141742745600,8.90174560546875,-3.4031893176078793,2.8266519969344137,-7.587233828863501
1682096141762874600,8.92187451171875,-2.305139228868484,4.749221649003029,-12.182509363257884
1682096141783004000,8.94200390625,-3.0233693317770958,9.30768224121928,-17.947185819900035
1682096141803131600,8.962131591796876,-2.6260779866635797,9.796580441406368,-13.722220684713124
1682096141823260700,8.9822607421875,-1.4242597726747392,9.782219323098658,-10.360609578162432
1682096141843389700,9.0023896484375,0.10011099098138511,8.355194469624758,-6.790209590703249
1682096141863518700,9.022518798828125,1.1907494152247906,6.5296846773386,-2.3391420362353323
1682096141883647700,9.042647705078124,1.5680734925866127,5.301369209307432,2.001183170056343
1682096141903775700,9.062775634765625,0.8849661409854889,4.429325678259134,5.531124305877089
1682096141923904800,9.08290478515625,0.02234970590882003,3.860978678303957,8.060587253916264
1682096141944033500,9.103033447265625,-0.5478220983207226,2.963088466076553,10.103550879603624
1682096141964162600,9.12316259765625,-0.16730317044034598,2.9491946730196474,11.060887844794989
1682096141984290600,9.14329052734375,-0.701249742013216,3.278278451086581,10.545371102273464
1682096142004419800,9.163419921875,-1.2782663706362247,4.266504767799377,11.085706644231081
1682096142024548900,9.183548828125,-0.871654385600239,5.075092602503299,11.990903087818621
1682096142044677600,9.203677734375,-0.03255786925554275,5.227374583292007,12.04922434388399
1682096142064805600,9.2238056640625,1.6142098053395748,4.957343590435386,11.140255396020411
1682096142084934700,9.2439345703125,3.1883330994844434,6.1475494003027675,8.513841309270262
1682096142105063700,9.264063720703126,5.031646259486675,9.367855847153066,4.433721282869577
1682096142125192700,9.284192626953125,5.883196453082562,9.64556745764017,3.021882308089733
1682096142145321700,9.30432177734375,3.564336157375574,9.69517933754921,-3.242396698105335
1682096142165449700,9.32444970703125,0.42406595479249953,10.317639035964012,-11.091109964579344
1682096142185578500,9.34457861328125,-1.122656268338114,8.779825072562694,-14.64831495490074
1682096142205707800,9.364707763671875,-2.0086055751420555,7.5666095585078,-11.89267652234435
1682096142225836800,9.3848369140625,-5.135453839963675,4.659767295788228,-10.723409455609321
1682096142245964800,9.40496484375,-7.086563357818126,1.9693723197758197,-10.113708701002597
1682096142266093800,9.42509375,-6.3675196004390715,-0.583879207868874,-7.7217030895859
1682096142286222600,9.44522265625,-4.130938067229092,-3.1615307250157,-4.600028866401314
1682096142306351600,9.4653515625,-2.518161217302084,-5.609523304331303,-1.4601041162550448
1682096142326479600,9.485479736328125,-1.7067970497526228,-7.743519784596562,1.1494745710283518
1682096142346608600,9.505608642578125,-1.9323628779388964,-9.339824515411257,2.6837217818588015
1682096142366737700,9.525737548828126,-3.2094974680662154,-10.681473517155647,3.483307394939661
1682096142386866700,9.54586669921875,-4.484328019034862,-11.389375118273495,3.8437422968208788
1682096142406995700,9.56599560546875,-4.205585896456241,-11.327751313531397,3.897963131830096
1682096142427123700,9.586123779296875,-2.7169243787586685,-11.114424204671382,4.325977531987428
1682096142447252700,9.606252685546876,-1.561405266869068,-10.917449680197238,4.636303710353374
1682096142467381800,9.6263818359375,-1.9847920072257517,-10.386631323647498,4.62680055347085
1682096142487511000,9.646510986328124,-3.5997722124159335,-9.254149972996116,3.0980998708516356
1682096142507639000,9.66663916015625,-4.2467128566145895,-7.640666143843531,-0.6169435653418303
1682096142527767800,9.686767822265624,-4.287603669929504,-4.413073047116399,-3.2033833691000937
1682096142547896800,9.706896728515625,-5.821711764550209,-1.0840800155758856,-6.40687312118411
1682096142568025900,9.72702587890625,-8.167538393115997,1.3084896594643591,-12.126848850834369
1682096142588153900,9.74715380859375,-5.591534643176198,3.756955409249663,-18.15968056958914
1682096142608283000,9.767282958984374,-0.4448480095257982,7.925922762882709,-18.53385407396555
1682096142628411600,9.78741162109375,1.798130786973238,10.780827040833234,-14.447968908166885
1682096142648541000,9.807541015625,-0.6391162341833114,9.882981544530391,-11.150601433467864
1682096142668670000,9.827669921875,-2.5506314082741737,7.1244485595762725,-8.113301776015758
1682096142688798000,9.8477978515625,-2.0782254932045934,5.925936109134555,-2.1481378183424473
1682096142708927000,9.867927001953126,-0.17762389078345148,6.2619251365453,3.63640712185204
1682096142729056000,9.888055908203125,0.8043756969016045,5.307726469379663,7.208331542399526
1682096142749184800,9.908184814453126,1.8202350667536258,3.832359317541122,8.912046262097359
1682096142769312800,9.928312744140625,2.5919898391008376,2.9199188941746947,9.586494506424664
1682096142789441800,9.94844189453125,3.668952716147899,2.143475379489362,12.290101138448714
1682096142809570800,9.96857080078125,4.638478131783009,3.3633024206385014,13.112136483746767
1682096142829699800,9.988699951171874,4.3740579645454885,3.5709447618603702,12.684778501671552
1682096142849827800,10.008827880859375,3.3092057965308426,3.501352170196175,11.988327684372663
1682096142869956900,10.028956787109376,2.1992741313397883,3.9222412485182283,11.881396418917179
1682096142890086000,10.0490859375,1.1844810024797916,4.933026895302534,12.311403454196453
1682096142910215000,10.06921484375,1.932287913006544,7.5581275613665575,11.077138722372055
1682096142930344000,10.089343994140625,4.936642747712135,11.584395001548527,7.583348511862754
1682096142950472000,10.109471923828124,5.1441795827329155,9.731064305400848,4.579785119795799
1682096142970601000,10.12960107421875,1.0307925889592617,12.0806505787611,0.9390525359600782
1682096142990729700,10.149729736328124,-3.2574422915458676,15.752888307929037,-2.5137644436478612
1682096143010858800,10.169858642578125,-5.766437036573887,15.207511849194765,-7.331279292154312
1682096143030988000,10.189988037109375,-5.2976387906074525,11.794269924128056,-10.928363872921466
1682096143051115800,10.21011572265625,-4.631184467643499,8.413094869929552,-11.789951476407051
1682096143071245000,10.2302451171875,-4.743395134806633,5.154045143187045,-12.36439153254032
1682096143091373800,10.250373779296876,-4.786833294516802,1.1308674857139587,-13.388729903858898
1682096143111502800,10.2705029296875,-3.553237255734205,-3.6219337753415104,-13.12738432176113
1682096143131630800,10.290630859375,-1.993665049511194,-7.799801059266924,-10.053270306652784
1682096143151760000,10.310759765625,-1.3821464318275452,-10.22498880931735,-6.42028380689919
1682096143171889000,10.330888916015626,-0.8702538711525499,-11.782944227993488,-3.64269248573184
1682096143192018000,10.351017822265625,-1.0730185233354568,-12.952172716283798,-2.8630419916987417
1682096143212146000,10.37114599609375,-2.5405706175088882,-13.854798432600498,-3.4406782135248184
1682096143232274700,10.391274658203125,-4.20832964220643,-14.19896141411662,-3.315372502467036
1682096143252404000,10.411404052734374,-5.08040707552433,-13.72277013528943,-3.09854001583457
1682096143272533000,10.431532958984375,-5.250894575089216,-13.286679396182297,-3.0242198111265894
1682096143292662000,10.451662109375,-4.928025726014376,-12.910267172968387,-3.8874551818192002
1682096143312790000,10.4717900390625,-4.8503380906999105,-11.653652662169932,-5.58886279361844
1682096143332918800,10.491918701171874,-4.510023601305485,-6.39739860587418,-7.178975684055685
1682096143353047800,10.5120478515625,-6.246174025183915,1.556302390772104,-6.837065449902415
1682096143373176800,10.5321767578125,-7.15041419095993,5.130002004298568,-9.526260110214352
1682096143393304800,10.552304931640625,-4.050378968131542,6.129076170501112,-13.163524141156673
1682096143413433900,10.572433837890625,-0.5306879716357216,10.003542691409587,-15.217155291330814
1682096143433563000,10.59256298828125,1.5542337678045033,14.876509962546825,-13.677586593216656
1682096143453692000,10.61269189453125,1.3648480910241603,15.098459938323497,-7.6899945306360715
1682096143473821000,10.632821044921876,-0.7259130586266517,12.731212920588254,-2.3064257615476844
1682096143493949000,10.652948974609375,-2.609557644495368,10.472090762007236,1.4098714740991591
1682096143514078000,10.673077880859376,-3.351078022098541,8.551040866851807,2.9605653773397207
1682096143534207000,10.69320703125,-3.1157915948867796,5.910845507508516,4.356674868068099
1682096143554335700,10.713335693359374,-1.5081798726379871,4.526642435412109,8.088331585410236
1682096143574463700,10.733463623046875,0.03660276073217392,3.685701314114034,11.158043566167354
1682096143594593000,10.753593017578124,1.2693430594682693,2.437635728213191,11.630261265188455
1682096143614722000,10.77372216796875,2.096678849261999,1.344013100527227,10.572920787978171
1682096143634851000,10.79385107421875,2.20704827247262,0.2188023254007101,9.834052386188507
1682096143654979800,10.813979736328125,3.012794161748886,0.49540626690685746,11.698203751558065
1682096143675107800,10.83410791015625,3.130973966449499,3.0308333840474484,13.641833727312088
1682096143695236900,10.85423681640625,2.155041021859646,4.012029071471095,14.873487984377144
1682096143715366000,10.874365966796875,1.6480220585703849,4.749925705619156,13.58834062205553
1682096143735495000,10.894494873046876,3.86229619064331,8.452477616769075,10.224753831517695
1682096143755623000,10.914622802734375,5.430847822135687,11.51529399279356,7.439843711769581
1682096143775752000,10.934751953125,0.6870074277795851,10.361950471377373,4.58000723811388
1682096143795881000,10.954880859375,-1.7804723806858063,13.2203911067605,-0.6254314077019691
1682096143816010000,10.975010009765626,-1.5403845445416866,12.739755123484134,-6.561826367008686
1682096143836139000,10.995138916015625,-1.0788216566562652,11.03537112622261,-11.40340948884487
1682096143856267000,11.01526708984375,-3.1839620447933674,9.154087424266338,-9.790110368609428
1682096143876396000,11.03539599609375,-5.007624747908115,7.468301159968972,-9.269293181592225
1682096143896524800,11.05552490234375,-5.063548295181989,4.164197655013203,-10.692130520248412
1682096143916653800,11.07565380859375,-5.061269828855991,-1.1614712982922792,-13.33607967916727
1682096143936781800,11.09578173828125,-3.987548710209131,-5.773607366594672,-10.699018526196479
1682096143956910800,11.115910888671875,-3.0169056887209416,-7.624540353950858,-6.223154384124278
1682096143977040100,11.1360400390625,-3.0773896757781505,-8.818375460231303,-3.3961335538774726
1682096143997169000,11.1561689453125,-2.814559408080578,-10.814247664397953,-1.9650275685697793
1682096144017298000,11.1762978515625,-1.9268097738564014,-13.16750356618166,-1.7045850727915763
1682096144037426000,11.196426025390625,-1.335540163475275,-14.062357479453086,-1.5574538988947868
1682096144057555000,11.216554931640625,-1.7751719361901281,-13.68649470681548,-1.1300719514220952
1682096144077684000,11.23668408203125,-3.2321815935611724,-12.389133175086974,-0.18153963945508003
1682096144097813000,11.25681298828125,-3.893427826488018,-11.978562661683558,0.029205051696300506
1682096144117941000,11.27694091796875,-3.142154701155424,-11.602999164253472,-1.1928379119366406
1682096144138069800,11.29706982421875,-1.1417781713068484,-10.651766945677995,-3.733213883656263
1682096144158198800,11.31719873046875,-0.5647206261515617,-4.116502422380447,-5.335379030936956
1682096144178328000,11.337328125,-5.1978036208927625,2.646512287405133,-5.721000981044769
1682096144198457000,11.35745703125,-8.068148629081248,2.738386853504181,-10.51665821800828
1682096144218585000,11.377585205078125,-3.780971660131216,4.617714160695672,-16.67494119377136
1682096144238713900,11.3977138671875,1.4148738124310969,9.902432094931601,-17.59340277712345
1682096144258843000,11.4178427734375,3.697566816213727,14.728443553626537,-13.370426185405254
1682096144278972000,11.437971923828124,-0.08538228147029876,13.685774575847386,-8.658568344634771
1682096144299100000,11.458099853515625,-3.4876293497920035,10.279173988491296,-5.830255136489868
1682096144319229000,11.47822900390625,-2.925994999217987,8.786462903141976,0.5815992802381516
1682096144339358000,11.49835791015625,-0.4571358652234077,8.49724381021261,5.373174216324091
1682096144359487000,11.518487060546875,0.3839513865470886,6.323282399305701,7.282248427003622
1682096144379616000,11.538615966796876,-0.05485972656779922,4.158229101997613,6.825426450034976
1682096144399744000,11.558743896484375,-0.16342179896235465,1.9014155126199126,9.541595041990279
1682096144419873000,11.578873046875,2.41499661090374,3.258941297931969,14.121141676855087
1682096144440002000,11.599001953125,3.877449336111545,4.108180291976034,15.601958910793066
1682096144460130800,11.619130859375,3.003903583806753,3.4503865375906226,14.127526993978023
1682096144480258000,11.639258056640625,0.815576378417015,2.560506028817594,12.536219925320149
1682096144500387000,11.659386962890625,-0.9588660744547843,2.0353952362596988,11.684981866413354
1682096144520515800,11.679515869140625,-0.4371241738080978,2.387778641371429,13.373886554992199
1682096144540644900,11.699644775390626,1.1034463217597454,4.196813976457714,13.504010479986666
1682096144560774000,11.71977392578125,3.240341519141197,5.603927091759443,10.977919638729094
1682096144580902000,11.73990185546875,4.9973663887441155,10.16027405282259,7.781235475006699
1682096144601031000,11.760031005859375,0.36505043285265565,10.58991517739892,5.325398904192447
1682096144621160000,11.780159912109376,-2.6830466590762136,13.141535596710442,-1.6655056928128003
1682096144641289000,11.8002890625,-2.9892624795138834,13.38356389939785,-6.723121675336361
1682096144661418000,11.82041796875,-2.6260674652695655,12.925726607906817,-11.058550926280022
1682096144681546000,11.8405458984375,-3.3545886605679986,10.82487076522112,-12.05157645996809
1682096144701675000,11.860675048828124,-3.6107998023867607,7.732939938393235,-13.812558542764187
1682096144721803800,11.8808037109375,-1.784334901332855,3.292902896505594,-16.032718810266257
1682096144741932800,11.900932861328124,0.6070060356300324,-1.6940660168647765,-14.446847795182466
1682096144762060800,11.921060791015625,1.7359329817354678,-4.8483770197600125,-9.823348621344566
1682096144782189800,11.94118994140625,0.8390333149153739,-6.9117369522660965,-5.723917745274305
1682096144802319000,11.961319091796875,-1.1983750147324055,-8.45448369589448,-3.2493484169393776
1682096144822448000,11.9814482421875,-2.0113947674691675,-10.441556507533788,-2.8348084153831
1682096144842577000,12.001576904296876,-2.144983738225698,-12.974843982297182,-3.470706856563687
1682096144862705000,12.021704833984375,-2.623237210279703,-14.186935460758209,-3.207208480346203
1682096144882834000,12.041833984375,-3.586691781568527,-14.43607856388688,-2.859137969997525
1682096144902963000,12.061962890625,-4.164616757208108,-13.70977153750658,-2.5982038913100958
1682096144923092000,12.082092041015626,-3.77497680363059,-13.693021478235721,-2.4469845713168383
1682096144943220000,12.102219970703125,-3.300456088364124,-13.725589868885278,-2.73831378826797
1682096144963349000,12.122348876953126,-3.259367706650495,-11.81774081608653,-4.569866952371597
1682096144983477800,12.142477783203125,-4.058501484310627,-6.923083691188693,-6.711981857162714
1682096145003607000,12.16260693359375,-4.32701914999485,-1.0093068064033985,-7.5736799352854485
1682096145023736000,12.182736083984375,-0.674044924223423,1.6251391956329344,-9.05145414826572
1682096145043864000,12.202864013671874,2.6183015074431895,4.926210785546899,-14.004377584171294
1682096145063993000,12.2229931640625,1.3256278412699698,10.444100346797704,-17.720676573383805
1682096145084121900,12.243121826171874,-4.051786496841907,14.697372708058356,-16.06682332444191
1682096145104251000,12.2632509765625,-7.126514259934425,14.061235197424887,-10.364493141597508
1682096145124380000,12.2833798828125,-5.178710797888041,13.904136756265162,-5.471277447679639
1682096145144508000,12.3035078125,-1.1093582492172718,12.3644663513422,-0.5761445219635963
1682096145164637000,12.323636962890625,1.1797042895972727,9.830436533778906,4.695774136453867
1682096145184766000,12.343765869140626,0.3650421399483457,7.260902856636047,7.465951381972432
1682096145204895000,12.36389501953125,-0.9769394912838936,4.5911584544643755,7.453636090278625
1682096145225023000,12.38402294921875,-1.3984826496005058,2.867567360168695,7.7212635291248555
1682096145245152000,12.404152099609375,0.6013678105473518,2.061289848233759,10.871992581880091
1682096145265281000,12.424281005859376,2.4030162502527235,2.3454589642971753,13.011784596681593
1682096145285410000,12.44441015625,2.0424597678184506,1.965114077809453,12.840505654478072
1682096145305538800,12.464538818359374,1.7232734066486357,1.6360700472310183,12.198546305823326
1682096145325666800,12.484666748046875,1.065675759357214,1.912464437639713,12.409992423242329
1682096145345795800,12.5047958984375,1.3783096301436424,3.272350230081379,13.825076663553714
1682096145365924900,12.5249248046875,2.1199662013471126,4.316168670156598,14.880517444622516
1682096145386054100,12.54505419921875,2.1303578315019607,6.168598618072271,12.498822214818
1682096145406183000,12.565182861328125,2.8634511570215224,11.076561214745045,9.232931828400492
1682096145426311000,12.585310791015624,0.5391467705644667,11.183542749083042,7.319449153628945
1682096145446440000,12.60543994140625,-0.7209586510896683,12.290453020626305,-0.6557517271637916
1682096145466569000,12.62556884765625,-2.0060360169149933,13.191328678405284,-5.308199932110309
1682096145486698500,12.645698486328126,-3.5344098056674,12.890688027751445,-8.234600589519738
1682096145506827300,12.6658271484375,-4.687298569053411,11.61671087874174,-8.90130041167736
1682096145526955300,12.685955322265626,-5.161862538939714,8.699349267834425,-12.005226212203501
1682096145547084300,12.706084228515625,-3.2546319103002546,4.517741628336906,-14.957279197263716
1682096145567213600,12.726213623046876,-0.5799579427719116,0.12142507023215293,-14.321328733634948
1682096145587342600,12.746342529296875,1.1829342844944446,-3.423507883015275,-11.60714576253891
1682096145607470600,12.766470703125,1.6202701282918452,-6.220673088702559,-8.074352744418382
1682096145627599400,12.786599365234375,0.4916529787879437,-8.390677870938182,-5.006565594244003
1682096145647728400,12.806728271484374,-1.5956781233489512,-9.859235927283763,-3.8600264921456575
1682096145667857400,12.826857421875,-3.7192847270250318,-11.347357346755265,-3.017201456797123
1682096145687986400,12.846986328125,-5.000255095922947,-12.69358257037401,-3.250710937464237
1682096145708114400,12.867114501953125,-4.28859969522953,-13.304917648184299,-3.0293092432200908
1682096145728243500,12.887243408203124,-2.998198650163412,-13.10715051202774,-1.8508622602075337
1682096145748372500,12.90737255859375,-2.3047955299973486,-12.654520141530035,-0.9938812737345695
1682096145768501500,12.92750146484375,-2.936612254822254,-12.270742942506073,-1.703332442381978
1682096145788629500,12.94762939453125,-3.6801498174667358,-11.879534132176637,-3.8652123703509567
1682096145808758500,12.967758544921875,-2.729441330504417,-9.159187962275743,-5.91042815887928
1682096145828887600,12.987887451171876,-1.7460522246897219,-2.4216864639312026,-6.665284403395653
1682096145849016300,13.008016357421875,-3.5263550940275192,1.7743980292081831,-8.951050238752364
1682096145869145300,13.028145263671876,-4.316813397800922,1.6588263611793517,-12.800926508283615
1682096145889273300,13.0482734375,-2.3314590805172917,5.266572621214389,-15.259191767549513
1682096145909402400,13.06840234375,-0.1741647267729044,10.937927820080517,-15.483395659732818
1682096145929531400,13.088531494140625,0.6964344506859779,13.87657771821022,-13.466212956511974
1682096145949660400,13.108660400390624,-0.17814880970669908,12.950630747538804,-11.2222264077425
1682096145969789400,13.12878955078125,-1.7626035465180874,10.702591123986243,-5.9504755071073765
1682096145989917400,13.14891748046875,-2.147694166228175,10.116412699264288,1.9225708211123942
1682096146010046500,13.16904638671875,-2.678929871407151,9.227207021012902,6.677141429927945
1682096146030175500,13.189175537109374,-3.003342442792654,7.358482356378436,8.297284716969727
1682096146050304500,13.209304443359375,-2.2423288446903227,4.517090470951795,9.570300327470898
1682096146070432500,13.2294326171875,1.0953659642219542,2.955202681262791,13.535156144356726
1682096146090561300,13.249561279296875,4.633284654793143,3.9656250476926562,16.733758124399184
1682096146110690300,13.269690185546875,4.88099977094531,3.741261873294413,17.301838582372664
1682096146130819600,13.289819580078126,2.784449516499042,3.3078003136470913,15.600059214651584
1682096146150948600,13.309948486328125,1.648719393184781,3.424268053732812,14.12167592986226
1682096146171076600,13.33007666015625,1.5578104572474956,3.4838080379381773,12.878382672929764
1682096146191205400,13.350205322265625,1.535707346510887,2.904865994210541,11.813135952639579
1682096146211334400,13.37033447265625,1.9156641104638574,3.765004860192537,9.905815307629108
1682096146231463400,13.39046337890625,3.3096704914331436,9.30980990089774,7.150743861305713
1682096146251591400,13.41059130859375,3.225971633005142,11.92344926174879,7.1797560207784175
1682096146271720400,13.430720458984375,1.274254212385416,10.461548325204848,1.349950966143608
1682096146291849500,13.450849365234374,-0.9045512044865638,12.532759555733204,-3.1983255011886356
1682096146311978200,13.470978271484375,-3.927691330617666,13.363601307821273,-6.2390896198809145
1682096146332107500,13.491107421875,-5.767535937726497,12.455254291248322,-8.71382962860763
1682096146352235500,13.511235595703125,-5.881923364406823,9.923790524780749,-10.925843414533137
1682096146372364500,13.531364501953124,-3.8934827715456484,6.238475287374854,-13.348525319242476
1682096146392493600,13.55149365234375,-2.300301725709438,0.888393777346611,-15.771782393491268
1682096146412622300,13.571622314453125,-1.513217282283306,-3.1861066556066273,-13.767625176060198
1682096146432751400,13.59175146484375,-0.958648632311821,-5.409503420811891,-9.881432561522722
1682096146452879400,13.61187939453125,-0.26223292285893113,-7.688271360105276,-6.7468310522258275
1682096146473008400,13.63200830078125,-0.37142742053866384,-10.171291121399403,-4.275334555464982
1682096146493137400,13.652137451171875,-1.3842588939368723,-12.17089842044115,-3.3891806659996506
1682096146513266400,13.672266357421876,-2.737084538733959,-13.5079758764863,-3.3005542880415915
1682096146533394400,13.69239453125,-3.80097516824007,-13.623985935932398,-3.4093881722480055
1682096146553523200,13.712523193359376,-3.888572787672281,-13.820266048401594,-2.5198048928558827
1682096146573652200,13.73265234375,-2.7352000401616094,-13.53526369638443,-2.2915075938791034
1682096146593781200,13.75278125,-2.4269126741468905,-13.178830431360005,-2.573837511816621
1682096146613910500,13.77291064453125,-2.726496509224176,-12.301395270401239,-3.3187545461207626
1682096146634038300,13.793038330078126,-3.199387577462196,-9.220454039621353,-4.423455324921012
1682096146654167300,13.813167236328125,-3.980954134249687,-2.8833453595370053,-6.038509764391184
1682096146674296300,13.83329638671875,-4.224056788170337,2.640104173928499,-8.187170729824901
1682096146694425300,13.85342529296875,-2.928379848527908,4.895624508625269,-13.023352284878492
1682096146714553300,13.87355322265625,-1.9307459442615509,6.968497534886002,-14.671224705845116
1682096146734682400,13.893682373046875,-0.8391524843156337,12.707220635104179,-15.783634159326553
1682096146754811400,13.913811279296874,-0.11696984438896178,14.28675075672865,-11.821211707067489
1682096146774940200,13.933940185546875,-0.5357189515402541,12.282107217085361,-5.8086962156325574
1682096146795069200,13.954069091796875,-1.0910872639894484,10.226867462670802,-0.22591069610118863
1682096146815197200,13.974197265625,-1.6851462128281591,9.223726193159818,3.5545740572959184
1682096146835326500,13.994326416015625,-2.3204186310648915,8.036694921675323,5.037300339725613
1682096146855455500,14.01445556640625,-3.2008255013108253,6.352246043461561,5.899262621742486
1682096146875584300,14.034584228515625,-2.9725463225126263,4.060110380811989,8.455708853775262
1682096146895712300,14.054712158203126,-0.27565120735857634,2.936796963739395,10.946937640488146
1682096146915841300,14.07484130859375,1.850479398369789,3.017245588199794,13.033727548420428
1682096146935970300,14.09497021484375,2.015458363646269,2.480226331183314,12.662656686234474
1682096146956099300,14.115099365234375,1.2455331448137759,2.410533201754093,12.124376323240995
1682096146976228400,14.135228271484374,1.2303227162003516,2.7299855203837153,13.260865740489958
1682096146996356400,14.1553564453125,1.794917085623741,3.2668566011011597,15.11204890321493
1682096147016485000,14.175485107421874,2.0768974594712257,4.038824431677162,14.797959572923183
1682096147036614400,14.195614501953125,2.007914524137974,4.8861117071315645,12.228012054282425
1682096147056743400,14.215743408203124,3.908369375032186,9.251487475788593,7.0085121498882765
1682096147076872400,14.23587255859375,3.1395489025712013,9.777150349271297,6.529359683167934
1682096147097000400,14.25600048828125,0.13967033649682997,10.957440329802036,1.847818070206046
1682096147117129200,14.276129150390625,-1.9872658499933777,13.592315370905398,-3.7882624016612767
1682096147137258200,14.29625830078125,-3.53819633846879,12.643552172791956,-10.888917997717856
1682096147157387300,14.31638720703125,-3.0566987699270247,9.991771589595078,-12.811754191768168
1682096147177516300,14.336516357421875,-2.6590651872470974,7.388441441312432,-13.666998563706874
1682096147197644300,14.356644287109376,-1.8524178190864622,4.284353143700957,-13.218686640930175
1682096147217773300,14.376773193359375,-1.9185741526916622,0.47980888480246064,-11.839902379012107
1682096147237902300,14.39690234375,-2.661131764388084,-3.5670734733849763,-10.099445197850466
1682096147258031400,14.41703125,-2.37014273917675,-5.7813709863334894,-6.661593732184171
1682096147278159400,14.437159423828126,-0.8075018660981208,-7.6668410340636965,-3.2328672377377745
1682096147298288400,14.457288330078125,-0.27918643228001894,-9.713353876665234,-1.2703969524353742
1682096147318417400,14.47741748046875,-0.43959326733537013,-11.635850463497638,-1.8869804522931575
1682096147338546200,14.497546142578125,-1.496447349268198,-12.574293343126772,-2.0034628054261208
1682096147358675200,14.51767529296875,-2.9058664034247395,-12.74481708304882,-1.9131670329511163
1682096147378803200,14.53780322265625,-3.880840732115507,-12.736210582745075,-1.6187743367761374
1682096147398932200,14.55793212890625,-4.180190758436918,-12.024040802788734,-0.9283248057186603
1682096147419061500,14.5780615234375,-3.792316060966253,-11.764781963837146,-0.8680623524576425
1682096147439190300,14.598190185546875,-3.4729613574922085,-11.368730974173545,-1.9635177485287187
1682096147459318300,14.618318359375,-3.3128689952135084,-9.234273306137323,-3.862171687480807
1682096147479447000,14.638447021484374,-4.030820865702629,-3.0896319022357464,-4.867573887661099
1682096147499576300,14.658576416015626,-6.498546027231216,3.0576258216440677,-6.213741828134656
1682096147519705300,14.678705322265625,-6.821915227043628,4.813512042605876,-10.782504618656635
1682096147539834400,14.69883447265625,-2.2084031942129134,6.797587425994872,-14.826844306623935
1682096147559962400,14.71896240234375,1.2498457473158835,11.282504643094539,-16.068399195456504
1682096147580091100,14.739091064453126,1.1718494844436644,13.131535596221685,-13.153466857522725
1682096147600220200,14.75922021484375,-0.23491236973498014,11.66186402567625,-9.872368965101241
1682096147620349200,14.77934912109375,-1.085621984320879,9.095998807913064,-5.622722977644205
1682096147640478200,14.799478271484375,-1.6530243969023226,7.614443322828412,-0.05813771619200706
1682096147660606200,14.819606201171876,-1.9554840796768664,7.095588375794887,3.7557214835405346
1682096147680735200,14.8397353515625,-2.1372152961812914,6.086687812104821,5.769940660780668
1682096147700864300,14.8598642578125,-1.9628068237803875,4.041479622361064,7.682955718040466
1682096147720993300,14.8799931640625,-0.7715921291314065,2.812025505688786,10.433299551320076
1682096147741121300,14.900121337890624,1.0053929939605295,2.714585122156143,13.22166302639246
1682096147761250300,14.920250244140625,1.2260171279609202,2.738249783121049,14.417808747702836
1682096147781379300,14.94037939453125,0.3847134569607675,2.7364769282296297,13.87277248070836
1682096147801508000,14.960508056640625,-1.0758743511579931,2.7012720515966415,12.615212213492393
1682096147821637000,14.98063720703125,-1.5312207026161253,2.031148100209236,12.784569247722626
1682096147841765000,15.00076513671875,-0.4642741926707327,3.468129699552059,13.760996697831153
1682096147861894100,15.02089404296875,0.06909969358071684,5.574106538513303,12.569679127329588
1682096147882023400,15.0410234375,1.4533948278747497,10.393964735275507,9.328980465313792
1682096147902152200,15.061152099609375,-0.1766390079319477,10.685838726627827,6.822249573564529
1682096147922280200,15.0812802734375,-0.8084991335071623,9.72777636977136,0.7886877869695424
1682096147942409200,15.1014091796875,0.4730724161542952,12.383482017457485,-0.803368054229021
1682096147962538200,15.121538330078126,-0.2417114918231964,13.966867645466326,-4.2442654634624715
1682096147982667300,15.141667236328125,-2.8853181209146976,12.361319285488127,-8.843900362110137
1682096148002796300,15.16179638671875,-4.589932419800758,8.683302972918748,-12.116671155691146
1682096148022924300,15.18192431640625,-3.5713059963881966,5.534783997428417,-12.253755567348003
1682096148043053000,15.202052978515624,-2.491420509892702,2.8853496850967404,-11.499884826737642
1682096148063182300,15.222182373046875,-2.4285014046430584,-0.7311679104149341,-9.493170326039195
1682096148083311400,15.242311279296874,-2.877790648019314,-4.224062633389234,-8.192648284453153
1682096148103440400,15.2624404296875,-3.026403000384569,-6.791220813572407,-6.33335546503067
1682096148123568400,15.282568359375,-2.718987741029262,-8.270038398125767,-3.788938693487644
1682096148143697200,15.302697265625,-1.9235095632672308,-9.710717098420858,-2.50695943980813
1682096148163826200,15.322826171875,-2.523358785945177,-11.275797838932275,-2.5991180835455654
1682096148183955200,15.342955078125,-3.8870460164964196,-12.867383140009641,-3.549850535905361
1682096148204083200,15.363083251953125,-4.552817910154164,-13.36586457657814,-3.321790552815795
1682096148224212200,15.383212158203126,-4.20379842851758,-12.551468932378292,-2.2891338504850864
1682096148244341200,15.40334130859375,-3.8421032974421974,-12.27102935823202,-1.9355273333191871
1682096148264470300,15.42347021484375,-3.9076176798820494,-12.034796005558967,-1.8364421051889657
1682096148284598300,15.443598388671875,-3.7651848929345606,-10.432228707218169,-4.072339455527067
1682096148304727300,15.463727294921876,-3.3440614213347435,-6.118841192212701,-6.75193626641035
1682096148324856300,15.483856201171875,-3.9783459975779056,-1.4479256026834249,-8.213831357735394
1682096148344985300,15.5039853515625,-3.840500538420677,1.9182523733913897,-10.352336255335807
1682096148365114000,15.524114013671875,-2.6320108838438987,6.104753630149364,-13.851967008566856
1682096148385242000,15.5442421875,-1.4397522330999373,10.238211863505839,-16.494865197128057
1682096148405371100,15.56437109375,-1.7192191628217697,11.25238189203143,-15.29967107745409
1682096148425500200,15.584500244140624,-2.137529915088415,11.427657794916628,-11.0478857398808
1682096148445629200,15.604629150390625,-2.0035539908409117,10.868597678744793,-5.9512394772171975
1682096148465758200,15.62475830078125,-1.270275956404209,9.729230075711012,-1.2539438302844763
1682096148485886500,15.644886474609375,-0.41661797687411306,8.168484734055399,2.927068765929341
1682096148506015500,15.665015380859375,-1.0710416703045367,5.854068558275699,5.905300732862949
1682096148526144500,15.68514453125,-1.8804209476470946,4.273535981610417,7.811296266749501
1682096148546273500,15.7052734375,-1.0271803167462348,3.724805536273122,9.125465725415944
1682096148566401500,15.725401611328126,0.7431155378401278,3.2024846666947004,11.405318537336587
1682096148586530600,15.745530517578125,2.6342472645938395,2.6060017055794593,13.586775272434949
1682096148606659300,15.765659423828126,3.5948341714918612,2.827912518389523,14.01315242677927
1682096148626788400,15.785788330078125,2.261107194918394,3.0934438617393374,12.785368873667716
1682096148646917600,15.805917724609374,0.4075800994157791,3.1230113170072435,13.003933298659323
1682096148667045600,15.826045654296875,0.6930944926083088,4.218846360045672,15.183837543618678
1682096148687174700,15.846174560546874,2.142097369134426,5.949701015603542,16.056538077270982
1682096148707303400,15.866303466796875,4.320615128171443,9.248533302158117,11.802469597196579
1682096148727432400,15.886432373046874,3.48537894051671,12.08121055073142,6.156969555076956
1682096148747560400,15.906560546875,-3.0255273865938186,10.023758965486287,2.2910376382797955
1682096148767689500,15.926689453125,-3.6913656234860417,13.921667736780643,-0.35825112810134885
1682096148787818500,15.946818603515625,-3.0095722770929334,13.537265099334716,-3.542511279058456
1682096148807947500,15.966947509765625,-2.5740543694376945,12.253312499755621,-8.051984260743856
1682096148828076500,15.98707666015625,-3.171019561111927,10.03720063086152,-9.45302711622119
1682096148848204300,16.007204345703126,-2.9536779559135433,7.548702145895361,-12.402352722144126
1682096148868333600,16.02733349609375,-1.947512077884376,2.8548592697650195,-14.305184239041804
1682096148888462600,16.047462646484377,-0.982451532703638,-1.6021411818832159,-13.262302495294808
1682096148908591600,16.067591552734374,-1.5687046300970018,-4.92053858512938,-10.562677626383303
1682096148928719600,16.0877197265625,-2.3709517174720762,-7.6410402378529305,-7.152804885488748
1682096148948848400,16.107848388671876,-2.847015570527315,-9.594959552431106,-4.3749481913834805
1682096148968977400,16.127977294921877,-3.3018916741251942,-10.765745207035541,-3.8387949035465714
1682096148989106400,16.1481064453125,-4.328607880491018,-12.36963469389081,-3.634527299454808
1682096149009235500,16.1682353515625,-3.8337539867699144,-13.265017014950512,-3.7457518781900405
1682096149029363500,16.188363525390624,-2.5050959840238094,-13.937542182260751,-3.662980071479082
1682096149049492500,16.208492431640625,-1.057827968466282,-13.66057116100788,-3.1348224585711955
1682096149069621500,16.22862158203125,-1.5192261673092842,-12.872095555484295,-2.3899463407993315
1682096149089750500,16.24875048828125,-2.8965795196413993,-11.96852525179386,-2.5950427969306706
1682096149109878500,16.26887841796875,-3.432556866389513,-9.714089205202459,-4.676729244244099
1682096149130007600,16.289007568359374,-1.4209399806022642,-5.529005998548865,-6.793355487513542
1682096149150136600,16.309136474609375,-1.1483937900543213,-0.1104641157567501,-6.720645056089759
1682096149170265300,16.329265380859376,-2.796829690122604,3.4994255860477685,-10.198646745836735
1682096149190394400,16.349394287109376,-1.3511550812363624,7.3693474492639295,-14.838567477643489
1682096149210522400,16.3695224609375,3.4058909777820108,8.317076628154515,-16.509606839185953
1682096149230651400,16.3896513671875,2.2506430840492246,11.107913799864052,-12.904877881145477
1682096149250780700,16.40978076171875,-5.554513949292898,13.678020308458803,-4.421701174730062
1682096149270909400,16.429909423828125,-7.816267625421285,14.042331759512424,0.9546662846773862
1682096149291038500,16.45003857421875,-4.64617745411396,12.201164963889122,2.849568762141466
1682096149311166500,16.47016650390625,-1.5990145742952824,9.425268171679972,2.9226480268776416
1682096149331295500,16.49029541015625,-0.7482651756882667,5.922271741408109,1.8858628464400766
1682096149351424500,16.510424560546873,-0.821603968143463,2.9500790546387434,3.990165614709258
1682096149371553500,16.530553466796874,0.26638299174308777,2.10294317035377,8.026212690627574
1682096149391682300,16.550682373046875,0.9274994608104229,2.07874484090358,10.728941370773315
1682096149411810300,16.570810302734376,0.6718845313191414,1.4418176411971448,11.060170051914453
1682096149431939600,16.590939697265625,0.4191490662543103,0.1987535168454051,11.142822616159915
1682096149452068600,16.611068603515626,1.5519325051248072,0.5891942654117942,12.74002517259717
1682096149472197600,16.63119775390625,1.3662018437206744,1.3345254334747791,13.535086001729965
1682096149492326000,16.651325927734376,0.3748047514846548,1.6053791408911346,13.216134618359803
1682096149512454700,16.67145458984375,0.06435936718583106,1.1004159410879015,11.599432411682605
1682096149532583700,16.691583740234375,1.1129250017881394,1.0936351949065923,8.75167216026783
1682096149552712700,16.711712646484376,3.37467283269763,6.046193889153003,4.975019532379508
1682096149572841700,16.731841796875,3.1084137595951553,9.062962799751759,4.255073857724667
1682096149592969700,16.7519697265625,1.1169300727110356,10.316582220387458,2.346117720466852
1682096149613098500,16.772098388671875,-0.3671849606633186,11.959987725073098,-3.111341045218706
1682096149633227500,16.7922275390625,-3.1880361623644826,10.156612607705593,-9.327624959051608
1682096149653356800,16.812356689453125,-4.487721753126382,9.981688586997985,-9.211813637048005
1682096149673484800,16.83248486328125,-5.167293916338682,8.083686389952897,-8.416543549078703
1682096149693613800,16.85261376953125,-2.691005509126186,5.008913618674874,-10.009570281136035
1682096149713742800,16.872742919921876,0.030341435315087435,1.3745190056890249,-11.093492475801705
1682096149733871600,16.89287158203125,1.278940908896923,-2.620305248481035,-10.059455717289447
1682096149754000600,16.913000732421875,1.0459679462593048,-5.527256524533033,-6.950996949508786
1682096149774128600,16.933128662109375,0.6250584827363491,-7.058491109544039,-4.005871133363247
1682096149794257700,16.953257568359376,0.03713467565178871,-8.599569043177366,-0.8127139747232198
1682096149814386700,16.97338671875,-0.75454410982728,-9.99016415439844,0.4711877714514732
1682096149834515700,16.993515625,-1.9855238286316395,-11.313495993685722,0.5173024568945169
1682096149854644700,17.013644775390624,-2.6896716301739216,-12.273802330076693,-0.37732758449316023
1682096149874772700,17.033772705078125,-1.8007143737256526,-12.61169456076026,-0.1695101789653301
1682096149894901800,17.05390185546875,-1.1920341943383217,-11.997165655344723,0.6560264524519444
1682096149915030800,17.07403076171875,-1.9714462034404276,-11.29981233624816,0.9226263018161058
1682096149935159800,17.094159912109376,-2.9233377627074715,-11.23908401904106,-0.45891281176805493
1682096149955287800,17.114287841796877,-2.927009729218483,-10.851895550268887,-3.466422895634174
1682096149975416600,17.13441650390625,-0.5541068776786328,-7.185216624271869,-6.098590431344509
1682096149995545600,17.154545654296875,-1.1853051783442496,-0.5620341635465622,-5.928453644913435
1682096150015674600,17.174674560546876,-3.8522880068480965,2.2586668160289523,-8.195129579874873
1682096150035804000,17.194803955078125,-4.740657234275341,4.771088028374314,-12.865317439651488
1682096150055932000,17.214931884765626,-2.57124632627964,7.622963898414373,-14.366933131468295
1682096150076060700,17.235060791015623,-0.707170948755741,10.034994645249842,-12.620899611479043
1682096150096189700,17.255189697265624,-0.7085656179845332,10.663780039554833,-9.254520559874177
1682096150116318700,17.275318603515625,-0.41463527862429617,11.121282984524965,-6.962539503264427
1682096150136446700,17.29544677734375,0.6032710138201713,8.538131116396189,-3.605731997603178
1682096150156575700,17.31557568359375,-0.7482570654470473,6.167982532000542,-0.07380290283560753
1682096150176704800,17.335704833984376,-2.3829192186415193,5.003150817364454,3.219274181193113
1682096150196833500,17.35583349609375,-3.0775697085201736,4.331092390783131,6.149882227164507
1682096150216962800,17.375962890625,-2.195216380381584,3.2661297481313345,9.389397232353687
1682096150237090600,17.396090576171876,0.6327658422432839,3.1352772166013714,12.757966487479209
1682096150257219800,17.4162197265625,2.0014029502868653,2.475974811218679,14.33074421223402
1682096150277348900,17.436348876953126,1.814462328571081,1.7614432705670595,14.109709597736597
1682096150297477600,17.4564775390625,0.9028091831248253,1.868963734087348,13.136862928724288
1682096150317605600,17.476605712890624,-0.663048898434639,2.6471207746922967,12.134414902174472
1682096150337734700,17.496734619140625,-1.6257262017406522,2.2731597440227866,11.85125613219738
1682096150357863700,17.51686376953125,-1.0259867961127311,2.087579012483358,12.132157478636502
1682096150377992700,17.53699267578125,0.6833132494367659,3.9817756797656414,10.340241328394413
1682096150398121500,17.55712158203125,3.4306454798102375,8.531873809567093,5.305604654920101
1682096150418249700,17.577249755859373,1.8638789781689642,9.53616717172265,3.4781139179497953
1682096150438378800,17.597378662109374,-1.8886089302778244,11.209195076733828,0.7297919458866119
1682096150458507800,17.6175078125,-2.65472423543334,12.18986732480526,-1.5080390028625725
1682096150478636800,17.63763671875,-2.665830151337385,11.773064639014004,-7.476822904598713
1682096150498765300,17.657765380859374,-3.8775872832775113,10.765922901690006,-9.125219057178496
1682096150518893300,17.677893310546875,-5.43005754854083,8.952281826373934,-10.185214432811737
1682096150539022000,17.69802197265625,-3.398400914287567,5.300429298108816,-12.453657377445698
1682096150559151400,17.7181513671875,-0.267050588806346,0.3637479719519615,-14.20724175120592
1682096150579280400,17.7382802734375,3.03132467469573,-4.5057034000188105,-13.267274438488483
1682096150599408400,17.758408447265627,3.559483456647396,-7.864127693226933,-9.303730873245
1682096150619537400,17.778537353515624,0.16145773234777153,-8.866848691499232,-4.630260338535905
1682096150639666400,17.79866650390625,-3.727194477236271,-9.502835395485162,-2.4635686263710257
1682096150659795200,17.818795166015626,-5.187277550703286,-10.77274076501131,-2.1830092252373694
1682096150679924200,17.83892431640625,-3.8888440058290956,-12.506366054326294,-1.7250678888499735
1682096150700052200,17.85905224609375,-2.9242835191249847,-13.244461718177794,-1.1813035414874553
1682096150720181200,17.87918115234375,-2.647458628344536,-13.258970720523594,-1.3655880957365034
1682096150740310500,17.899310546875,-1.9702806667923927,-12.587791122603416,-1.595849972784519
1682096150760439300,17.919439208984375,-0.7477870367825031,-12.318126624971628,-1.773361671897769
1682096150780567300,17.9395673828125,0.10967029849793761,-11.37444993634224,-3.251632143962383
1682096150800696300,17.9596962890625,0.6995335857450962,-7.7615610527217385,-3.9300533835738896
1682096150820825300,17.979825439453126,-1.6824831310987471,-0.6786001033097505,-4.5486751112610095
1682096150840954400,17.999954345703124,-5.014416892266273,0.6882400383144617,-7.906739338985085
1682096150861083400,18.02008349609375,-2.124096433019638,1.8493933566987513,-12.262538593262434
1682096150881211400,18.04021142578125,-0.17226210802197456,5.088987272343039,-13.643596645331382
1682096150901340200,18.060340087890626,-0.8760276322484016,11.719161199390888,-14.515270758545398
1682096150921469200,18.08046923828125,-3.770418701934814,13.190144437056778,-9.790056592595576
1682096150941598500,18.100598388671877,-4.69006101950407,11.14814877961874,-8.855846820491552
1682096150961726500,18.1207265625,-3.6430513821721076,8.875631717413663,-6.506234243646264
1682096150981855500,18.14085546875,-1.776310000309348,8.060404883086681,-2.0808634404927493
1682096151001984300,18.160984375,-0.8677180690646171,7.221709494888782,1.7854934237182138
1682096151022113300,18.18111328125,-0.8644330560445785,5.469812051302195,4.254745356422663
1682096151042242300,18.2012421875,0.47206104715466496,3.9038127346411344,8.592135093784332
1682096151062370300,18.221370361328123,2.762043623423576,4.504861980758607,11.804029101598262
1682096151082499300,18.241499267578124,2.241727956187725,3.3551784431546925,12.062860070526598
1682096151102628400,18.26162841796875,1.4168009811013935,2.330004205533862,11.086860490441321
1682096151122757400,18.28175732421875,1.3943150085270404,0.9331839361876249,12.152598209118842
1682096151142885000,18.301885009765623,3.080975133049488,2.1813106046259403,14.87319689247608
1682096151163014400,18.322014404296876,2.4303052391946314,3.1105402502298354,15.202224264180659
1682096151183143400,18.342143310546874,0.5195628030419349,2.92250189640522,13.524513169789314
1682096151203272400,18.3622724609375,-0.6380921518325805,3.181653183329105,11.391871026742457
1682096151223401200,18.382401123046876,0.7709936517816036,5.593060829830169,8.504134738770126
1682096151243529200,18.402529296875,4.165200110054016,10.170420183783769,5.827656352168321
1682096151263658200,18.422658203125,4.632576798784733,9.400919912365078,4.331503601932526
1682096151283787300,18.442787353515627,0.43564862136282023,13.238892393612861,-0.06672025109827517
1682096151303916300,18.462916259765624,-4.503811302661895,14.039639451688528,-3.4321453629791736
1682096151324045300,18.48304541015625,-4.7583495428323745,15.08780644236207,-8.377429682308435
1682096151344173300,18.50317333984375,-4.176204319149256,12.714132021927833,-8.760106226614116
1682096151364302300,18.52330224609375,-3.4980116275966164,9.748248079913854,-10.52948613539934
1682096151384431400,18.543431396484376,-3.2465304369091985,5.826513611873984,-12.075981417906284
1682096151404560400,18.563560302734373,-2.64864403873682,1.2034662734568118,-12.231917829549312
1682096151424688400,18.5836884765625,-1.2866541136227547,-2.4870424409389496,-9.335487362989783
1682096151444817400,18.6038173828125,-0.37444472253322597,-5.65723490357697,-7.053044534575939
1682096151464946200,18.6239462890625,-0.5183330420512706,-8.052695039361716,-4.9856636759907005
1682096151485075000,18.644074951171874,-1.2686240975439547,-10.055407318681478,-3.44966465305686
1682096151505204000,18.664203857421874,-2.8059236816823483,-11.750765128922461,-2.0252070197224614
1682096151525332000,18.68433203125,-3.3412732519209385,-12.997068673586845,-1.9333441440612076
1682096151545461200,18.704461181640625,-2.2376947551488877,-14.204513203024863,-2.44931213748157
1682096151565590000,18.724590087890626,-1.8850702347576618,-14.479708446776867,-1.7816864326506852
1682096151585719000,18.744718994140626,-3.01506210668087,-13.83950032570362,-1.7997855684429407
1682096151605847000,18.764846923828124,-4.846383215594291,-13.744690875196456,-2.9080238737195727
1682096151625976000,18.78497607421875,-5.463231503868102,-12.513638675677775,-4.484086026972532
1682096151646105000,18.80510498046875,-3.4503064580917355,-8.451792557114363,-5.975278524452447
1682096151666234000,18.825234130859375,-1.301192488193512,-3.6117379600197075,-6.33941695702672
1682096151686363000,18.84536279296875,-0.2353261564339511,1.0211457127571106,-8.741268839675188
1682096151706491000,18.865490966796877,-0.6715303110539913,4.2413568825393915,-12.841340351736545
1682096151726620000,18.885619873046874,-1.243565644133091,8.73326615048349,-16.901374452441928
1682096151746749200,18.905749267578123,-1.0646961006700992,12.128987031906842,-17.124595178806782
1682096151766878200,18.925878173828124,-1.9553589919924734,12.875240283250807,-12.199493231284618
1682096151787006200,18.946006103515625,-3.0094927821159363,12.011878071308136,-6.791575033837557
1682096151807135200,18.96613525390625,-3.40841026712656,10.033781177806853,-1.670443149214983
1682096151827264000,18.986263916015623,-3.0827929961264133,8.424564942970871,2.1156769797205923
1682096151847393000,19.00639306640625,-2.011308258229494,6.184904440706968,3.8972850864380595
1682096151867522000,19.02652197265625,-0.49163317810893054,3.3203602277517317,5.763267758888006
1682096151887650000,19.046650146484374,1.8355682449638842,2.101840762069821,8.688844240432978
1682096151907779000,19.066779052734375,2.9234944145739075,2.1589763154819606,10.410746358728408
1682096151927908000,19.086908203125,1.646960566818714,1.3842694153308868,10.600005194258689
1682096151948037000,19.107037109375,0.9835166046518832,1.0492498174741864,11.833822182315588
1682096151968166100,19.127166259765627,1.6356652658224105,2.342451306913793,14.09299227169156
1682096151988294100,19.147294189453124,2.265495785266161,3.9667721719011664,15.959128673398494
1682096152008423200,19.167423095703125,0.4846445613306015,4.157127278235555,15.217131910455226
1682096152028552000,19.187552001953126,-2.0469395435810087,4.993382287544012,14.411616322803496
1682096152048681000,19.207680908203123,-2.5439503230750558,7.345465638417005,13.2604156586349
1682096152068809000,19.22780908203125,2.350675822162628,13.494424320995806,9.937284797126054
1682096152088938000,19.24793798828125,1.8310488678433,12.321027022588252,6.015805180630087
1682096152109067000,19.26806689453125,-3.5301217530846594,13.233102119773626,-1.3239590312749148
1682096152129196300,19.2881962890625,-5.9764966680705545,13.852253424292803,-4.408403301739693
1682096152149325000,19.308324951171876,-3.5788463287651537,14.016418735098839,-7.144473110473156
1682096152169453000,19.328453125,-2.349703031607717,10.601768112277984,-9.13022957881689
1682096152189582000,19.34858203125,-0.9966017847396432,7.495357509198785,-12.357503526592254
1682096152209711000,19.368711181640624,0.49288405495285986,3.0592221509248017,-15.072004477596282
1682096152229840100,19.388840087890625,0.8155142729662358,-2.3573662597119807,-15.79963953770995
1682096152249969000,19.408968994140626,-0.3487947329699993,-6.227768015399575,-12.064896544790267
1682096152270097000,19.429096923828126,-0.4485587371446192,-7.985663238096237,-6.976323698467016
1682096152290226000,19.449225830078124,-1.1026024913467467,-9.846135622692108,-4.189226882329583
1682096152310355200,19.469355224609377,-2.0271990703225136,-12.01824702181816,-3.897743351599574
1682096152330484200,19.489484130859374,-1.9105330311857163,-14.342102641594408,-3.6752146991521117
1682096152350612200,19.5096123046875,-2.308062861230224,-15.003872606134413,-3.613237843188643
1682096152370741200,19.5297412109375,-4.248578650486469,-14.22264507204294,-2.71748142811954
1682096152390870000,19.5498701171875,-6.467927601605654,-13.347014914679526,-2.0921312689602374
1682096152410999000,19.5699990234375,-7.6239470642328255,-12.69578621789813,-2.180749463611841
1682096152431128000,19.590128173828123,-6.6643398160219185,-11.952296586048602,-2.8469302303314206
1682096152451256000,19.610256103515624,-4.923291098707914,-9.583805121210217,-4.530497649535537
1682096152471385000,19.630385009765625,-5.2417175814211365,-3.797317814776301,-4.754075518774986
1682096152491514600,19.6505146484375,-9.79273487189412,1.2807587719738482,-5.37009729309678
1682096152511643600,19.6706435546875,-9.46096959965825,4.7564574454754585,-11.121023456805943
1682096152531771600,19.690771728515625,-2.2124539309084414,7.205108488699794,-16.410992151176927
1682096152551900700,19.710900634765625,4.161129499614239,12.680068424284457,-18.322680343747137
1682096152572029700,19.73102978515625,4.2743513896465295,14.672681334394216,-14.41045195519924
1682096152592158700,19.75115869140625,0.4458605110365897,12.943157050657272,-10.116869795382023
1682096152612287700,19.771287841796877,-1.7722341291725634,11.340470509850979,-5.160215940776467
1682096152632415700,19.791415771484374,-1.9143430909931658,10.780864450234175,1.2508815201044081
1682096152652544800,19.811544677734375,-1.8315853128075599,9.5659701893121,5.522845722353458
1682096152672673800,19.831673828125,-1.8337421985805034,7.534433382046222,7.6155334561526775
1682096152692802600,19.851802490234373,-0.9379227282125502,5.793802013361454,9.813900409519672
1682096152712931600,19.871931640625,0.27468203353285786,4.587170846132934,11.045041456365585
1682096152733059600,19.8920595703125,0.47017179934196174,3.7610096530765293,11.426382368153334
1682096152753188600,19.912188720703124,0.8855752127945422,3.333209187930822,12.611363721370696
1682096152773318000,19.93231787109375,1.188452171133086,3.3479344633758066,13.502310690331457
1682096152793446700,19.95244677734375,1.0577542456429452,3.5415225602820515,13.76571963469982
1682096152813575000,19.972574951171875,0.3539140487451106,3.286771554143727,13.638166436976194
1682096152833703700,19.99270361328125,0.5462648589413612,3.2749902231961485,14.158324283301829
1682096152853832700,20.012832763671874,0.5639630127172917,4.520240459415317,13.623390892648697
1682096152873961700,20.032961669921875,1.4515665895342826,8.30623257805705,10.217594607412815
1682096152894089700,20.05308984375,3.3576176530003545,10.588525184345245,6.076116733729839
1682096152914218800,20.07321875,2.0711223832011223,7.777730097234248,1.938230162537098
1682096152934347500,20.093347412109374,-0.36789924641251565,11.669029095000027,-3.0144764157474038
1682096152954476500,20.1134765625,-2.859264518986642,13.794569297087191,-6.768808490756154
1682096152974605800,20.133605712890624,-4.628614909416437,12.788151197862625,-11.81805762695074
1682096152994733800,20.15373388671875,-5.574711518669128,8.291897763234376,-12.77493749602437
1682096153014862800,20.17386279296875,-3.8303742812037465,5.300447418287396,-12.975158455073833
1682096153034991600,20.19399169921875,-1.1818893785513938,2.5123487316310404,-12.766855896377562
1682096153055120600,20.21412060546875,0.7769477378804236,-1.1546183636575937,-9.823743758141994
1682096153075248600,20.23424853515625,1.0656348428249358,-4.909636082842946,-7.346639942893385
1682096153095377700,20.254377685546874,0.73741170017533,-7.712773348677158,-4.634650097927451
1682096153115506700,20.274506591796875,1.1446212127130477,-9.679365682345628,-2.0220821657001973
1682096153135635700,20.2946357421875,0.6530383765518665,-11.876032846057415,-0.8063304111659526
1682096153155764500,20.314764404296874,-0.7859083853840827,-13.419169465786219,-1.193327741280198
1682096153175892500,20.334892578125,-2.70211376311779,-13.812636868697403,-2.4632769499480722
1682096153196021800,20.355021728515624,-3.536245204401016,-13.525800286990403,-2.3833587791025637
1682096153216150800,20.37515087890625,-2.866786438924074,-13.03654260584116,-1.7969225802272557
1682096153236279800,20.39527978515625,-2.734152576935291,-12.735140907686947,-1.5165174928724765
1682096153256408600,20.41540869140625,-2.8571733919262883,-12.134237207520007,-2.3505758689194916
1682096153276536600,20.43553662109375,-2.9301228928029537,-10.339876586735247,-4.087563328143954
1682096153296665600,20.45566552734375,-1.879062518775463,-6.732344846233725,-6.350290817740559
1682096153316794600,20.475794677734374,-0.9656045158643275,-1.0005933385938406,-6.7894818609505885
1682096153336923600,20.495923583984375,-1.478647488683462,2.9046371538907287,-9.8296263864398
1682096153357053000,20.516052978515624,-2.2728467325508594,6.1644783232718705,-14.882314264911413
1682096153377180700,20.5361806640625,-0.43723172583580017,9.86508231522441,-16.161562632322312
1682096153397309700,20.556309814453126,1.3925135120630263,11.62016189597845,-12.64211191085577
1682096153417438700,20.576438720703123,1.6032219628572464,12.382006684207916,-9.105783119824528
1682096153437567700,20.596567626953124,0.66590019621253,11.607060422343014,-6.000640344724059
1682096153457695700,20.61669580078125,-0.28384616771936416,9.481664012640714,-0.9156482794970273
1682096153477824800,20.63682470703125,-1.3116297110557555,8.370784837466477,3.6821640798985955
1682096153497953500,20.65695361328125,-3.4588813942134378,7.467099967485666,5.980502981102466
1682096153518082600,20.67708251953125,-4.625441247816384,4.9917327667713165,6.960790029248595
1682096153538211600,20.697211669921874,-3.252754718251526,2.7330399395182727,7.585481432238221
1682096153558339600,20.717339599609375,-1.0889959907986224,1.579699048450589,9.940095178371667
1682096153578468900,20.73746875,0.3458006657205522,1.623810285116732,11.892360880523919
1682096153598598000,20.757597900390625,-0.34453605261221526,1.7060720964789389,11.909826394587755
1682096153618726700,20.7777265625,-0.7641315839923918,2.1285057738944886,11.07819203081727
1682096153638855700,20.797855712890627,-0.9366330537281929,1.1807540909111498,11.942791091078519
1682096153658983700,20.817983642578124,0.09061141429543494,1.6024287666529415,14.824162520194053
1682096153679112700,20.83811279296875,1.0712591124475002,2.753360843013227,16.44408778057098
1682096153699241700,20.85824169921875,0.34072847702279685,4.947750417181849,13.57599435070157
1682096153719370500,20.87837060546875,1.0453213919840751,9.536813652932643,8.95479000980258
1682096153739498500,20.89849853515625,-0.07456058933511375,9.948384867811203,7.82373839969337
1682096153759627500,20.91862744140625,-0.8626292214930057,12.487397149962186,7.128730766940117
1682096153779756800,20.9387568359375,-0.8534780929185449,16.203836424428225,2.4460353077679873
1682096153799885800,20.9588857421875,-3.066289605093002,17.319327477312086,-6.059223466596007
1682096153820014600,20.9790146484375,-4.872459029354155,15.472586680948734,-12.838969530951976
1682096153840142800,20.999142822265625,-3.892507789033651,11.220886683571338,-15.376377885037659
1682096153860271600,21.019271728515626,1.8052479255020617,6.67976184155941,-16.485282545268536
1682096153880400600,21.039400634765624,4.4673897437155246,1.3223697162568568,-16.41285326887369
1682096153900529700,21.05952978515625,3.5369454616248603,-4.588377007052302,-15.588600247526168
1682096153920658700,21.07965869140625,2.207678387069702,-7.498760595640539,-11.896156765675544
1682096153940786700,21.09978662109375,0.8185646004475653,-8.241569259488582,-8.092930019116402
1682096153960915700,21.119915771484376,-1.051662504639104,-10.048455015325546,-6.072099899303913
1682096153981044700,21.140044677734377,-1.1464894177377223,-12.980933531343936,-6.8714049418777225
1682096154001173800,21.160173828125,-0.6017665275413543,-15.263970818519592,-6.778683988082409
1682096154021301800,21.1803017578125,-0.41249242137670517,-14.917107345873116,-6.047880819326639
1682096154041430800,21.2004306640625,-0.6668728406369686,-13.751506400430202,-4.270214728233218
1682096154061559600,21.2205595703125,-1.4388357027769088,-12.533425910687447,-3.3147175456896423
1682096154081688600,21.2406884765625,-1.7345032411932944,-12.060261286205053,-3.905745748530328
1682096154101817600,21.260817626953123,-1.4231060725949705,-10.246334379684924,-4.638574577894807
1682096154121945600,21.280945556640624,-0.6735131554342806,-5.779061540347337,-6.915786519917845
1682096154142074600,21.30107470703125,0.12315167482905089,-0.6847925282090902,-7.972558841851353
1682096154162204000,21.321203857421875,1.49429864680171,1.624149600073695,-8.558692842909693
1682096154182332700,21.341332763671875,2.3148878849446772,5.387191051238775,-10.891010586082935
1682096154202460700,21.361460693359376,1.555027986922115,11.456404581451416,-14.345430909234285
1682096154222589700,21.381589599609374,0.2742027255833149,14.011279618644714,-13.519917658692597
1682096154242718700,21.40171875,-1.9587071333765982,14.340503389704226,-6.993190662115812
1682096154262847700,21.42184765625,-1.6891373282909392,13.825585197597741,-0.4533130920648575
1682096154282976500,21.4419765625,-0.9331658890742808,12.579759791839122,1.710766391775012
1682096154303104500,21.4621044921875,-1.2212930220484732,9.94197383172512,3.014461218178272
1682096154323233500,21.482233642578127,-1.542369873140007,7.414306534931063,3.841529881468415
1682096154343362800,21.50236279296875,-2.49537772308588,4.913821844094992,5.038120423936844
1682096154363491800,21.522491943359373,-3.027670536102354,2.3903660275161265,5.844661847504973
1682096154383620900,21.542620849609374,-1.5912076999366283,0.906404065811634,7.47001965432465
1682096154403748900,21.562748779296875,-0.467369528337568,0.4375350926965475,9.312972164320945
1682096154423877600,21.582877685546876,0.18009923138841985,0.08402005320638417,10.764085164868831
1682096154444006700,21.603006591796873,0.6180829446353018,0.21709289113432167,12.322680050492286
1682096154464135700,21.6231357421875,1.6112170532643795,1.210442834471166,13.998728764629362
1682096154484263700,21.643263671875,2.206763025790453,1.9028683417767285,14.123975438976286
1682096154504392200,21.66339208984375,0.637811581325531,2.2269611796885727,13.818653937029838
1682096154524521200,21.683521240234374,-0.07528408130407332,4.203664573004842,13.910174867385624
1682096154544650000,21.70364990234375,1.897072807240486,10.706862809956073,10.346203451669215
1682096154564779000,21.723779052734375,3.710341542112827,11.688522900021075,7.245461541876196
1682096154584907000,21.743906982421876,0.03006312983036041,9.678175595778226,1.7961726386427879
1682096154605036000,21.7640361328125,-2.119829423224926,12.722796974420547,-1.761606352174282
1682096154625165000,21.7841650390625,-5.052976632285118,14.307779516232014,-5.228039184680581
1682096154645294000,21.804294189453124,-5.986094517499208,13.058955513179301,-7.456786078742146
1682096154665423000,21.824423095703125,-4.538801075239479,9.506902498793602,-9.7127833833009
1682096154685551000,21.844551025390626,-0.014828151297569274,6.580228285139799,-12.22700083141327
1682096154705680100,21.86468017578125,3.700576519423723,2.5379309166550637,-12.292261531352995
1682096154725809200,21.88480908203125,4.921107324928045,-1.9741338350892066,-10.508940190976858
1682096154745938200,21.904938232421873,3.1818016518890855,-5.191699458798766,-7.471471022176742
1682096154766066200,21.925066162109374,-0.22552944169864056,-6.592809534293413,-5.3944052204012864
1682096154786195000,21.94519482421875,-1.7893031912647186,-8.546403854700923,-4.4217859304040665
1682096154806324000,21.965323974609376,-1.6038848106801509,-10.780023907756805,-3.1368554257035255
1682096154826453000,21.985452880859373,-2.0402325932882723,-11.9155991327703,-2.203735786923766
1682096154846582300,22.005582275390626,-3.7631262068390843,-12.939762147521972,-3.695928401356935
1682096154866710300,22.025710205078123,-4.821189445365965,-13.594364704650639,-5.86889437148571
1682096154886839000,22.045839111328124,-3.1032547693967816,-14.613919348824023,-6.544257977092266
1682096154906968000,22.065968017578125,-0.938666020860523,-14.265602754759788,-6.061488488918543
1682096154927097000,22.08609716796875,-1.186823620083183,-13.300883278101681,-5.898659979674219
1682096154947225000,22.10622509765625,-2.598939804369211,-11.26058741031885,-7.2976201836586
1682096154967354000,22.12635400390625,-2.5829893710434435,-5.625051712852716,-9.840075299739837
1682096154987483100,22.146483154296874,-3.749616736924648,-0.8185182770878076,-10.71055932638645
1682096155007612000,22.16661181640625,-4.1532933991611,1.2693828069567679,-12.340375866180658
1682096155027741000,22.186740966796876,-2.9337387452125547,3.436275010129809,-12.042432199525832
1682096155047869000,22.206868896484377,-1.510886208987236,8.012598591294884,-15.435373679363726
1682096155067998200,22.226998291015626,-2.7848727103471753,13.600979154354333,-17.754195396625995
1682096155088127200,22.247127197265623,-4.030764751601219,14.760176077973842,-15.034182404202221
1682096155108256000,22.267256103515624,-1.5355027638494967,13.55630063919425,-11.028373230159282
1682096155128385000,22.287385009765625,-0.7151788986444473,13.099280509305,-4.578761621966958
1682096155148513000,22.307512939453126,-1.8379928417623042,12.79086337943077,1.5474462996214626
1682096155168642000,22.32764208984375,-5.873418570911884,10.640634141767025,4.572922248288989
1682096155188771000,22.34777099609375,-6.684581809061766,8.065749166724085,6.502357109951973
1682096155208900000,22.367900146484374,-3.4643466738820075,6.139390059244632,10.439198546230793
1682096155229028000,22.388028076171874,-1.2805799082756042,5.68612489797473,13.582586588573456
1682096155249156900,22.408156982421875,-0.995714480511099,5.482624771124124,13.807550359213351
1682096155269286100,22.4282861328125,-1.1586579944372177,4.226188539502024,12.317854237771034
1682096155289415200,22.448415283203126,-1.3291279583454132,3.1766394468203183,11.744010393965244
1682096155309544200,22.468544189453127,0.09051204557418822,5.6685454021424055,14.738926369196175
1682096155329672200,22.488672119140624,0.6256137785315513,7.126876663506031,16.215042878097293
1682096155349801000,22.508801025390625,0.1355072254680097,6.8444228269279,15.224560014629363
1682096155369930000,22.528929931640626,0.7675307249113917,7.962547735446691,14.58196002998352
1682096155390059000,22.54905908203125,4.155857112169265,14.390670565408467,12.896418680357932
1682096155410187000,22.56918701171875,3.4171465312898155,14.911202505743503,10.769003332048653
1682096155430316000,22.58931591796875,-0.6154641404390335,14.639824189931153,2.4165935247063635
1682096155450445000,22.609445068359374,-2.70444483641386,15.740356158614158,-3.5318799949288366
1682096155470574000,22.629573974609375,-3.949513870847225,17.125092022413014,-5.632426625534892
1682096155490703600,22.64970361328125,-5.787928737413883,17.02187714713216,-8.659246974548697
1682096155510831600,22.66983154296875,-7.4657088053882115,13.354603177851438,-13.199147243201732
1682096155530960600,22.689960693359374,-4.929033441752195,7.536790758827328,-18.812680367696284
1682096155551089400,22.71008935546875,-1.6943921800792217,1.983241855174303,-19.30184101821184
1682096155571218400,22.730218505859376,-0.6624773821569979,-3.0595933223247527,-16.06512587287426
1682096155591346400,22.750346435546874,0.2635913151979446,-7.25966717736125,-12.746668848395347
1682096155611475500,22.770475341796875,0.93089904012084,-10.18660559490919,-8.721200449636578
1682096155631604500,22.7906044921875,-0.931517318149656,-11.452713910239934,-6.268017608201504
1682096155651733500,22.8107333984375,-3.4483111926212904,-13.63884331332445,-6.17717939941287
1682096155671862500,22.830862548828126,-3.8358208561718463,-15.066083270853756,-6.585641542360186
1682096155691990300,22.850990234375,-1.8809248055160044,-15.53701034554243,-5.192530064404011
1682096155712119600,22.87111962890625,-1.4896527206920087,-15.027544573622942,-3.5864337151542305
1682096155732248600,22.89124853515625,-3.7806080875158306,-14.452405429309605,-3.303988646404445
1682096155752377600,22.911377685546874,-6.678616178655624,-14.054605550152063,-3.659602119478583
1682096155772506400,22.93150634765625,-7.098923657697439,-13.61504859623909,-4.385360279804468
1682096155792634400,22.95163427734375,-4.330681764155626,-11.271531998181342,-3.661457976478338
1682096155812763400,22.971763427734373,-3.0895477310836315,-5.768155530929565,-4.445301830548048
1682096155832892400,22.991892333984374,-6.799489460223913,-0.8281506133079528,-5.777147231158613
1682096155853021400,23.012021484375,-8.654628667098283,1.7596639859348535,-11.782598191034793
1682096155873149400,23.0321494140625,-3.699927700126171,4.931394910186529,-17.019203544008732
1682096155893278700,23.05227880859375,1.7408756988346576,9.056296912121772,-18.96615477313995
1682096155913407500,23.072407470703126,0.9666600893318652,14.899540125000476,-21.017754125225544
1682096155933536500,23.09253662109375,-3.0638509797692297,14.114412660861014,-16.922998255228997
1682096155953665500,23.11266552734375,-4.423772720307111,14.709959802430868,-11.325998916906117
1682096155973793500,23.13279345703125,-5.057258839648962,15.536753155910969,-4.409373608076572
1682096155993922600,23.152922607421875,-4.097678479444981,14.580322199648618,2.180613270011544
1682096156014051300,23.17305126953125,-2.9402316143631935,12.18911796774268,5.726973625713587
1682096156034180400,23.193180419921877,-4.261067545181513,8.491979021552204,7.71347828207612
1682096156054309400,23.213309326171874,-1.991623022289574,5.723067850446701,12.21420214011669
1682096156074437400,23.233437255859375,0.6995698261022567,6.8715972495794295,16.704888588267565
1682096156094566700,23.253566650390624,-3.5144591967895624,7.628914331251383,16.793471711605786
1682096156114695400,23.2736953125,-7.403005973237753,8.871668074479699,16.669377714425323
1682096156134824400,23.293824462890626,-4.722607490582764,8.301687920364737,16.891586048877237
1682096156154952400,23.313952392578123,-2.218875780649483,6.636283934360742,15.675578273755312
1682096156175081500,23.33408154296875,-1.8677765701293945,5.123105230522156,14.196610467076301
1682096156195210500,23.35421044921875,-1.917791185620427,5.365133533209562,12.252432209789752
1682096156215339500,23.374339599609375,-1.229160102161765,6.494779952695965,10.604583169698715
1682096156235468300,23.39446826171875,1.2193319511085747,9.901776261371374,8.339214225682616
1682096156255596300,23.41459619140625,2.626336637599766,11.525796682107448,6.290209566265344
1682096156275725600,23.4347255859375,0.7443652456402778,11.6779968298316,-0.614265870565176
1682096156295854600,23.4548544921875,-0.9751739429160952,13.331775259971618,-8.036040841680764
1682096156315983600,23.474983642578124,-2.705493760944903,12.706402304458617,-12.811693401491642
1682096156336111600,23.495111572265625,-4.229842385834456,10.072461329334974,-13.845268387711048
1682096156356240400,23.515240478515626,-4.890779114420711,6.478961036795377,-12.591679362213611
1682096156376369400,23.535369384765627,-3.511142327326536,3.7050948736310003,-11.811768171417713
1682096156396498400,23.55549853515625,-1.9433799465157091,0.18019290102124214,-11.279175206410883
1682096156416627500,23.57562744140625,-0.9741595051765441,-3.9496787060201166,-10.20350412274003
1682096156436755500,23.59575537109375,-0.39476533376723527,-7.0638488371849055,-7.432400410026311
1682096156456884500,23.615884521484375,-0.514164304999262,-8.237439612337946,-4.409696848681569
1682096156477013500,23.636013427734376,-2.2617561603464185,-9.005898850271105,-2.6602824540823695
1682096156497142000,23.65614208984375,-4.542826092971861,-10.20728948649764,-3.2571734114766118
1682096156517270000,23.67627001953125,-5.5609448591232296,-11.921279516494273,-4.4789550938248635
1682096156537399000,23.69639892578125,-5.051465058678389,-12.469973721474409,-4.029264283910393
1682096156557528000,23.716528076171876,-4.550893664093316,-12.297380774062871,-2.564414434432983
1682096156577657000,23.736656982421874,-6.015298400151729,-11.735984908419846,-2.4058324767172334
1682096156597785900,23.756785888671875,-7.661036147177219,-12.024103931152819,-3.0184628550350663
1682096156617913900,23.776913818359375,-6.80814856749773,-11.965144377183913,-4.922477444237471
1682096156638043000,23.79704296875,-3.913280527949333,-8.04757462760806,-5.754353215548396
1682096156658172000,23.817171875,-2.674952199947834,-1.4720932447344064,-5.485590635192394
1682096156678301200,23.83730126953125,-5.285235236108303,3.087987057638168,-9.285623554146289
1682096156698429000,23.857428955078124,-4.165534456574917,5.230879961064457,-14.9401866081655
1682096156718558000,23.877557861328125,0.9226269594032317,8.206555813774466,-18.601200348007676
1682096156738687000,23.89768701171875,4.542729939121008,14.478789578366278,-19.07168435510397
1682096156758816000,23.91781591796875,1.899262426239252,16.3942631346941,-12.8199024269104
1682096156778945000,23.937945068359376,-2.1684265731334684,14.59210732998848,-6.559568943470716
1682096156799073000,23.958072998046877,-4.952774382823705,13.203334758019446,-3.7134476914346215
1682096156819202000,23.9782021484375,-4.866164605385065,11.585374660235642,0.21838673033714293
1682096156839330800,23.998330810546875,-2.663001065391302,11.237205365687608,6.400561453819274
1682096156859459800,24.0184599609375,-3.850424551063776,9.60638461728692,10.437220524156093
1682096156879589000,24.038589111328125,-3.0469653114199637,6.876627644962072,10.443173295080662
1682096156899717000,24.058717041015626,-0.7335165193676948,3.7533351729258895,10.679010341912507
1682096156919846100,24.07884619140625,1.9075754965543745,2.6855925441667434,13.659791408807038
1682096156939975000,24.098974853515625,3.775433899748325,3.509637475721538,17.756713516926766
1682096156960104000,24.11910400390625,3.3421804298937317,3.5592356193661687,17.76101092185974
1682096156980232000,24.13923193359375,1.4918822333097457,2.872603016248345,14.472237087982892
1682096157000361000,24.15936083984375,1.1676035905022173,1.9977616711750625,12.20210019891262
1682096157020490000,24.179489990234377,0.7667663894753902,1.379734986771643,10.324697722303867
1682096157040619000,24.199618896484374,0.8074422448653727,1.7878715510264038,8.629295488399267
1682096157060748000,24.219748046875,1.3770377105116844,4.869421853615343,6.851756238555907
1682096157080875800,24.239875732421876,4.271246409368515,10.464652136439085,4.354477650284767
1682096157101005000,24.260005126953125,3.781814540696144,9.420858538544177,2.55356629268229
1682096157121134000,24.280134033203126,-1.0202373657405377,10.212962855958938,-6.603502777743339
1682096157141263000,24.30026318359375,-4.863720134842396,10.170479805016518,-10.800220308089255
1682096157161391000,24.32039111328125,-4.341501264333725,10.132759438431263,-11.748880630350111
1682096157181520000,24.340519775390625,-3.936622825092077,6.259228737068176,-11.371204670810698
1682096157201649000,24.36064892578125,-4.24546197977066,3.246570768919587,-12.099079384899138
1682096157221778000,24.38077783203125,-2.6109984909534454,0.38417175129950043,-12.633778966796397
1682096157241907000,24.400906982421876,-0.512091444247961,-2.503133159518242,-11.5138747736454
1682096157262035000,24.421034912109373,2.496874099123478,-5.389504588878155,-7.418947054213285
1682096157282164200,24.441164306640626,2.1264755832411346,-7.311316700577735,-2.5052970595538615
1682096157302293000,24.46129296875,0.28704810556583105,-8.767497505909205,0.13253040161430835
1682096157322422000,24.481422119140625,-0.8532009564775973,-10.165834025037288,2.09389886315465
1682096157342550000,24.501550048828125,-1.7097019774138926,-11.243144108086824,3.5060663392364977
1682096157362679000,24.521678955078126,-2.235496952843666,-11.914774956905841,4.62758322828114
1682096157382808000,24.54180810546875,-2.280834808695316,-11.922989827543496,5.630932587584853
1682096157402936800,24.561936767578125,-1.8524116816066205,-12.4148229121387,5.90058071860373
1682096157423065900,24.58206591796875,-1.4457482586443424,-12.062955932116507,6.4271273891836405
1682096157443193900,24.60219384765625,-1.7707985434114932,-10.771955167591571,6.384689930948615
1682096157463323000,24.622322998046876,-3.4109657968282696,-10.004700044751166,2.668926363787055
1682096157483452200,24.6424521484375,-2.9692379286170003,-9.277104147604108,-1.1461182463377713
1682096157503581200,24.662581298828126,-0.4873100542128086,-6.3206830304622645,-3.0908962230831385
1682096157523709200,24.682709228515623,-3.043163581049442,-1.9635244705304502,-7.066333055216074
1682096157543838200,24.702838134765624,-6.5733063769221305,2.2812635555014014,-15.496550909382105
1682096157563967200,24.72296728515625,-5.506593675732613,4.876250530591607,-18.618605071794985
1682096157584096300,24.74309619140625,-0.8014204272925853,9.185959649345278,-19.334485396707056
1682096157604225300,24.763225341796876,2.6219173598527905,10.93628180643916,-15.446423481166361
1682096157624353300,24.783353271484376,1.4617548060715198,11.08248125244379,-11.218882942533492
1682096157644482000,24.80348193359375,-0.20112576240208,8.853524515023826,-5.406075784450769
1682096157664611300,24.823611328125,-0.24411504583358762,7.5727183967769145,2.5233015027999874
1682096157684740400,24.843740234375,-1.4094962110459803,7.19161246278882,7.897790308853984
1682096157704868400,24.863868408203125,-2.4271160877645013,6.714814450240135,10.487371333247422
1682096157724997400,24.883997314453126,-1.3461889832615852,5.690141732400655,11.88639291203022
1682096157745126100,24.904126220703127,0.8806278195202351,4.8224219097703696,12.692338707792759
1682096157765255200,24.924255126953124,1.6158334610186516,3.865974002373218,12.722116590940951
1682096157785384200,24.94438427734375,1.8868577026963234,3.1145708209201692,13.016058620738983
1682096157805512200,24.96451220703125,1.7368167788326738,2.7840207696929573,13.056117074882984
1682096157825641200,24.98464111328125,0.9705868343215435,2.8891262810260057,12.09103870178461
1682096157845770200,25.004770263671876,-0.1588403163909912,3.195703043730557,10.966896724933385
1682096157865899300,25.024899169921873,-0.7139326979756355,3.1285540458261965,9.99812884966731
1682096157886027300,25.04502734375,1.6052642823398113,4.524804698590934,8.355348783403635
1682096157906156300,25.06515625,5.457032064706087,9.424992277348041,6.161398477435112
1682096157926285300,25.085285400390624,2.533888363265991,11.29992456445098,4.993184719145297
1682096157946414300,25.105414306640625,-2.9597499693036076,13.542979385328293,-1.101325164887309
1682096157966543000,25.125543212890626,-4.45343019194603,12.305786198836564,-9.177704446697234
1682096157986671000,25.145671142578124,-2.6549285258337854,12.90253979358673,-12.04587152632475
1682096158006800100,25.165800048828125,-2.601819451458752,10.53006364302635,-11.93010696607232
1682096158026929200,25.18592919921875,-3.224790898787975,7.259692896324395,-13.358167592334746
1682096158047058400,25.206058349609375,-1.1789417807921767,3.240245073029399,-13.355292913681268
1682096158067186400,25.2261865234375,1.0851204645395278,-1.4215981522500514,-12.152932555639744
1682096158087315200,25.246315185546877,1.6525474270403384,-4.495238704627752,-8.8292177567631
1682096158107444200,25.2664443359375,-0.16374357826262712,-6.055314184197783,-4.513434286531806
1682096158127573200,25.2865732421875,-2.1822224587738512,-8.074220057949423,-2.001325208875537
1682096158147702300,25.306702392578124,-4.271053517144918,-10.524557446825504,-1.5049579879820345
1682096158167830300,25.326830322265625,-4.5917689875781535,-12.55523909856677,-3.2941835839658973
1682096158187959300,25.346959228515626,-4.0337469822824,-13.782820407104492,-2.9762814173877237
1682096158208088000,25.367088134765623,-3.839310451853275,-13.999773889768123,-2.0746634168088436
1682096158228217000,25.387217041015624,-3.5527775292679666,-13.670657670736311,-1.7378338469207286
1682096158248345000,25.407344970703125,-3.028465193611383,-13.431483003914355,-1.850304041802883
1682096158268474400,25.427474365234374,-3.1774095544099805,-13.209670975303649,-2.0398563073217866
1682096158288603400,25.447603271484375,-2.8425591756403445,-12.332719798469542,-3.663630644342303
1682096158308732200,25.467732177734376,-1.8609027388371526,-8.450026716485619,-5.113575770154595
