time,seconds_elapsed,z,y,x
1682096059027939600,0.013939697265625,0.7581196302264929,-5.511773708719015,2.2990292215555903
1682096059048067600,0.034067626953125,-0.8229512910991906,-4.651552717411517,2.219789680624008
1682096059068196600,0.054196533203125,-1.7758020507872103,-5.46728224056363,3.643147828283906
1682096059088324600,0.07432470703125,-1.165781562706828,-4.949782799792289,2.3938667291134594
1682096059108453600,0.09445361328125,-1.5473329023748634,-1.9156512509822845,-0.7221276948690414
1682096059128582400,0.11458251953125,-6.033192953282595,3.509592175275087,-1.1176432624816894
1682096059148710400,0.13471044921875,-8.601995978063345,2.859906616282463,-1.3943354667931793
1682096059168839400,0.15483935546875,-4.713128006836771,1.9718249736249445,-3.6146938872158527
1682096059188968400,0.174968505859375,-2.0064339301913976,2.9344892713189124,-2.670099499219656
1682096059209096400,0.195096435546875,-2.7654829502224922,5.558318017750978,-3.338742856660485
1682096059229225500,0.2152255859375,-4.438543588459491,6.474597580888867,-4.18708753221333
1682096059249354500,0.2353544921875,-3.6022301269620653,3.875027369661629,-3.8295524434268473
1682096059269482500,0.255482421875,-2.134008755224943,3.088950934234261,-2.3730068964362143
1682096059289611500,0.275611572265625,-0.8631015151798724,1.7816393786385654,-0.8832944083809852
1682096059309739500,0.295739501953125,0.12790449537932871,1.2283511238664389,0.6061562138676643
1682096059329868500,0.31586865234375,2.202185634872317,0.7490186244040727,3.2337264849156138
1682096059349997600,0.33599755859375,4.931043612530827,-0.11080547654032706,3.4978438698142766
1682096059370125600,0.35612548828125,5.649677620065212,-1.4842717583060263,4.243714259320497
1682096059390255400,0.37625537109375,5.545318250924349,-1.341612469126284,3.884997851794958
1682096059410384400,0.39638427734375,6.2735904398977755,-0.5959153903603553,5.049284792029857
1682096059430512400,0.416512451171875,5.803477019679546,-0.6358075480267406,4.150563681936264
1682096059450641400,0.436641357421875,5.718394013416766,-2.2563284362092615,3.1522207526177164
1682096059470770400,0.4567705078125,7.721421934556961,-1.756785215628147,3.8098242451280355
1682096059490898400,0.4768984375,8.824725121518968,0.8376105155706405,4.259055620837211
1682096059511027500,0.49702734375,7.8577160726189605,4.394998168982565,0.5926251166433095
1682096059531155500,0.517155517578125,3.2786051988229152,4.738110472401976,-0.9920967284053563
1682096059551284500,0.537284423828125,-1.0001184145584703,4.885457042615116,-1.0338625709891318
1682096059571413500,0.55741357421875,-3.115039899736643,8.40095551932454,-1.3461907368272543
1682096059591541500,0.57754150390625,-4.663769224905967,8.1878055205971,-2.551840784063935
1682096059611670500,0.59767041015625,-4.56356609866172,7.269434538137912,-4.127726411706209
1682096059631799600,0.617799560546875,-4.998619019153714,6.222471662557124,-5.296050060111284
1682096059651927600,0.637927490234375,-5.004191266328096,4.615582409363985,-5.7295005138427015
1682096059672056300,0.658056396484375,-4.596034243807196,1.9628473019212482,-5.12466415040195
1682096059692185300,0.678185302734375,-3.29156784850955,-1.1071487564742564,-5.096449863308668
1682096059712313300,0.698313232421875,-1.69083302629292,-4.207317250293493,-4.429049199405313
1682096059732442400,0.7184423828125,-0.26376784080862997,-5.526317782378197,-1.3708885402321815
1682096059752571400,0.7385712890625,0.5548074271634221,-4.588888463705778,4.14251423099339
1682096059772699400,0.758699462890625,0.6823764069780707,-8.673577113196254,1.9278969845712184
1682096059792828700,0.77882861328125,-0.3456313005030155,-10.642888058173655,1.2312404155671597
1682096059812957400,0.79895751953125,-1.1865636539727449,-10.486692118811607,2.4137732065886257
1682096059833085400,0.81908544921875,-1.941064801441133,-9.853262113571166,2.0378981589913368
1682096059853214500,0.83921435546875,-0.5731009164839983,-9.036696724116801,2.161716846361756
1682096059873343500,0.859343505859375,-0.25075053832530975,-9.01094385870099,1.4700503407299517
1682096059893471500,0.879471435546875,-0.705382604034245,-8.171345384183526,0.8224591236680746
1682096059913600500,0.8996005859375,-1.5099185329988598,-5.231353423795103,-1.4024983149826526
1682096059933728500,0.919728515625,-1.6395970523133874,-0.4955307700693607,-3.211494194841385
1682096059953857500,0.939857421875,-2.6814690344959495,0.9232280671015382,-2.355463056439161
1682096059973986300,0.959986328125,-2.872967465646565,1.7843536060333252,-3.568308568137884
1682096059994114300,0.9801142578125,-2.8379993203788993,2.8567417225107548,-5.142952671286463
1682096060014243300,1.000243408203125,-3.363935750105977,5.094507497069239,-6.958195921102166
1682096060034372600,1.02037255859375,-4.374625243039429,7.486260595029592,-6.604157442259788
1682096060054500400,1.040500244140625,-2.8310382491946218,8.214055814141034,-4.17114177506268
1682096060074629600,1.060629638671875,-0.8477221597403287,6.20407325155735,-2.4958769047796725
1682096060094758400,1.08075830078125,-1.0931763452231884,4.2825057622686025,-0.8177046226173639
1682096060114886400,1.100886474609375,-1.47925743727535,2.97758460894078,0.780163704252243
1682096060135015400,1.121015380859375,-0.9117895582422614,2.0791966763243077,2.496631522539258
1682096060155144400,1.14114453125,0.5271615876078606,1.5541042962059377,4.296781832641363
1682096060175272400,1.1612724609375,2.270069961313903,-0.07265548636615275,5.4915165181100365
1682096060195401500,1.1814013671875,2.5452529301062223,-1.168437337912619,4.8629614254295825
1682096060215530500,1.201530517578125,1.8716349991232155,-1.4234467027261852,5.19032992401123
1682096060235658500,1.221658447265625,2.8259923639819022,-1.3428668531015515,4.674631979703903
1682096060255787300,1.241787353515625,4.2832869757741685,-1.8246020297914742,4.529205856159329
1682096060275916300,1.261916259765625,4.955303024518489,-2.077090936216712,5.221788307592273
1682096060296044300,1.282044189453125,5.71885578570962,-1.7549322812378405,5.266157026150823
1682096060316173600,1.302173583984375,6.378337347051501,1.3148027881339193,4.4364749654918905
1682096060336301600,1.322301513671875,8.44290139465034,5.208710799354314,2.1319997534900903
1682096060356430600,1.3424306640625,7.7812419047474854,5.992531857070326,0.03781798174083233
1682096060376559600,1.3625595703125,2.586816235855222,5.514409902441502,-0.12939619524180887
1682096060396687400,1.382687255859375,-0.9552718493551016,8.526917063942552,-2.439841713824868
1682096060416816000,1.402816162109375,-3.3260517173916098,8.977902005320788,-5.948228604963422
1682096060436945400,1.4229453125,-3.4954262872785327,7.8936746902287,-6.449869382345676
1682096060457073200,1.4430732421875,-4.513773893749714,6.222313841646909,-6.699709235566854
1682096060477202400,1.463202392578125,-4.92027613480091,3.73989613789916,-6.490420003920793
1682096060497331500,1.48333154296875,-4.1787388060629365,0.39970425147414207,-7.189248656266927
1682096060517459500,1.50345947265625,-3.571954231163859,-2.710560688945651,-5.442110974428057
1682096060537588500,1.52358837890625,-3.275301188841462,-4.453213334324956,-2.1392688677102325
1682096060557717200,1.54371728515625,-3.0622920598894354,-5.990593582484125,1.2760831813782452
1682096060577845200,1.56384521484375,-1.9955349350363014,-7.719428714913129,3.089984368935227
1682096060597974300,1.583974365234375,-1.1183943731099366,-9.48236368534267,3.496908050268888
1682096060618103300,1.604103271484375,-0.9150953217893838,-10.062911410701274,2.7959248502373693
1682096060638231300,1.624231201171875,-1.4685095410287379,-9.375040790221094,3.9187943229347466
1682096060658360300,1.6443603515625,-2.9139982719540596,-7.818339755520224,5.210556134960055
1682096060678488300,1.66448828125,-2.7112176915496584,-7.833121729588508,4.543221522030234
1682096060698617300,1.684617431640625,-1.5655071492299437,-8.658053380849957,2.83260885951221
1682096060718746400,1.704746337890625,-0.6737472564511001,-6.967641210317611,1.2337789941340684
1682096060738874400,1.724874267578125,-0.6812772135645151,-2.831530416625738,-0.7887298725455999
1682096060759003400,1.74500341796875,-1.3938620040625334,1.4342834463000296,-2.5358517722934484
1682096060779132400,1.76513232421875,-4.52636069586128,1.6754814356431365,-4.0918695009052755
1682096060799260400,1.785260498046875,-4.5572918406978244,1.7261586066961288,-6.23508798302412
1682096060819389400,1.805389404296875,-0.6011541677966713,4.328239339439571,-7.524995107093453
1682096060839518200,1.825518310546875,2.856599391430616,7.425100316146016,-5.1353930496871465
1682096060859646200,1.845646240234375,-0.44834085661023854,7.226859132736921,-4.485736716789007
1682096060879775200,1.865775146484375,-4.148235823510587,7.343549575662612,-5.918452475380898
1682096060899904300,1.885904296875,-5.488383480781317,6.055818626588582,-4.952997085663676
1682096060920032300,1.9060322265625,-4.070796902260184,4.683125667282939,-2.5669991902291773
1682096060940161300,1.926161376953125,-1.6954498724386096,2.5331653096884486,-0.4144669363200664
1682096060960289300,1.946289306640625,0.8311499412544071,2.206326387938857,2.2984131354838606
1682096060980418600,1.96641845703125,1.9892415339805185,1.23170569499135,6.452383995515108
1682096061000547300,1.98654736328125,2.770516560475528,0.22408874137103557,7.942036862337589
1682096061020675300,2.00667529296875,4.825008419132232,-1.2174699566289782,7.9407433153957125
1682096061040804400,2.026804443359375,7.573596348655223,-1.310993166717887,7.76748985824883
1682096061060933400,2.046933349609375,8.338280159702897,-1.4860352608472107,8.171521325272321
1682096061081061400,2.067061279296875,5.084244461730123,-1.624332555425167,7.745747397518158
1682096061101190400,2.0871904296875,1.9008745376110077,-1.4919623128086328,7.646609562417864
1682096061121319200,2.107319091796875,3.325713863739371,0.5868816045552492,7.114536821892857
1682096061141447400,2.127447509765625,5.825322356262803,5.958228605452179,3.714710843238234
1682096061161576200,2.147576171875,2.3069689285136756,7.804820348733663,-1.2320873877853153
1682096061181705200,2.167705322265625,-3.571614623945951,5.452175856846571,-4.20831210654974
1682096061201833200,2.187833251953125,-2.9702362920045853,7.5579633107155555,-7.58546448110342
1682096061221962200,2.207962158203125,-2.3189375987268983,7.669206594151258,-7.897478174164891
1682096061242091500,2.228091552734375,-3.650595806202292,7.593470677426457,-5.609246240955591
1682096061262219500,2.248219482421875,-5.704867592367529,5.656460412073135,-5.8287055689603084
1682096061282348300,2.268348388671875,-5.319918426954746,1.9565350500345229,-6.102583300372958
1682096061302476300,2.288476318359375,-1.9418711493879555,-1.774896041858196,-6.024482992604375
1682096061322605300,2.308605224609375,0.5154279682595283,-3.9186400091558693,-3.130071464651823
1682096061342734300,2.328734375,0.10502177857235073,-4.675955337262153,0.5263491021811961
1682096061362862300,2.3488623046875,-1.6334312231600283,-6.314190745833516,1.4363491466581821
1682096061382991400,2.368991455078125,-0.9507439966671168,-7.54620682194829,2.5370564719080924
1682096061403119900,2.389119873046875,0.7946797208607196,-11.039656840717791,2.6328309680551287
1682096061423248000,2.409247802734375,0.832213186571747,-10.932704532474279,3.1330449275046584
1682096061443377000,2.429376953125,-1.540375338321924,-8.44545517078638,5.264503998246789
1682096061463506000,2.449505859375,-3.1887007637530562,-7.818096594414114,5.372061286646128
1682096061483633700,2.469633544921875,-3.53670405408442,-8.67229759477973,3.3918425786852833
1682096061503763000,2.489762939453125,-3.1452719563931226,-8.866078876170516,0.37787937315702436
1682096061523892000,2.50989208984375,-2.0484885265886783,-8.100369229206443,-0.4265051646381616
1682096061544020000,2.53002001953125,-0.0839931651994586,-3.75705419344902,-0.2773193962991237
1682096061564149000,2.55014892578125,-1.292078038367629,1.3079554064571857,-1.0993214238494633
1682096061584277000,2.570277099609375,-5.582677967503667,0.8459212477982043,-4.071780652600527
1682096061604405800,2.59040576171875,-6.489448528540134,0.8498632634222507,-7.806866175347566
1682096061624534800,2.61053466796875,-5.831851465770602,3.821862181185186,-7.992746474355458
1682096061644662800,2.630662841796875,-3.756198453402519,8.951195200181006,-8.02467189092636
1682096061664791800,2.650791748046875,-3.8885184271365403,10.57009053298831,-9.416922368139028
1682096061684920800,2.6709208984375,-5.222234297794103,7.745703558376431,-8.68115485497415
1682096061705048800,2.691048828125,-5.102529475483298,5.445111909809708,-3.964749433901906
1682096061725177900,2.711177734375,-3.032943800330162,5.709815570163727,-0.0803483789563179
1682096061745307000,2.731306884765625,-0.6450476700589061,4.027956708443164,2.4190800808250903
1682096061765435000,2.751434814453125,1.9693767036899923,2.6378932198807594,4.2235593600422145
1682096061785564000,2.77156396484375,3.5475010501697657,2.13722187205255,7.224646132862567
1682096061805693000,2.79169287109375,3.973494465893507,1.2367697003826499,7.835428252965212
1682096061825821000,2.811821044921875,3.6153543969511985,0.844495306648314,9.00769917769134
1682096061845950000,2.831949951171875,4.8217616922959685,0.6742921769827603,8.641232594430447
1682096061866079000,2.852078857421875,6.525082736501098,1.073717611515522,9.26206966007948
1682096061886207000,2.87220703125,6.225643862852454,1.044183473995328,9.765140762525796
1682096061906335700,2.892335693359375,4.259030486395955,1.050524367454648,8.754937299543618
1682096061926463700,2.912463623046875,2.4601132252201436,2.3581968653172254,6.27861732814908
1682096061946592800,2.9325927734375,4.678991928479075,5.706763196855783,1.8943857601135967
1682096061966721800,2.9527216796875,6.217886672854423,6.465493652456998,-1.6422423061251639
1682096061986849800,2.972849853515625,2.0337125438697634,5.1762622356921435,-0.051176645007729525
1682096062006978800,2.992978759765625,-2.339594894569367,9.621367666885256,-1.6349930656492708
1682096062027107800,3.01310791015625,-4.598724798065423,8.228561309355497,-4.408289904493094
1682096062047235800,3.03323583984375,-3.2764655564457175,6.9388125907182685,-6.231762053471804
1682096062067364900,3.05336474609375,-2.1981343136548994,5.652837545400858,-4.407778447839617
1682096062087494000,3.073493896484375,-2.7516087386488914,4.20276353251189,-4.3989813933998345
1682096062107622000,3.093621826171875,-3.2169103746712207,1.9205021981447934,-5.418036271357536
1682096062127751000,3.1137509765625,-2.759691507339477,-1.0877110655546187,-6.774151605349779
1682096062147880000,3.1338798828125,-1.7859984506309032,-4.336359809792041,-6.674623309627175
1682096062168008000,3.154008056640625,-0.9423340418487787,-6.065168638736009,-3.8021038800090547
1682096062188136700,3.17413671875,-1.6430372558951376,-6.7491065959423775,-0.011814356434345245
1682096062208265700,3.194265625,-3.0865351052641867,-7.639135281014442,2.547015555864572
1682096062228393700,3.214393798828125,-3.551426406919956,-9.222265472957492,2.733682621335983
1682096062248522800,3.234522705078125,-2.0468056880682703,-10.71449666583538,2.8137930998831986
1682096062268652000,3.254652099609375,-0.4195779591908678,-11.040512580764293,3.269692701309919
1682096062288780000,3.274780029296875,-0.49746086134910583,-10.183346300852298,4.165626811033487
1682096062308909000,3.294908935546875,-2.6621441563010215,-9.048004884594679,4.449572347474098
1682096062329037000,3.315037109375,-4.51271766269505,-8.975207359409332,2.4486791002750397
1682096062349165800,3.335165771484375,-3.345657166093588,-7.91945035199821,-1.3423182793080806
1682096062369294800,3.355294921875,-1.6493056686401366,-4.264873367205262,-3.29869258582294
1682096062389422800,3.3754228515625,-1.8544933101862668,-1.7530530433624982,-2.1641186468064784
1682096062409552100,3.39555224609375,-2.4044787240207195,-0.7013660618692636,-5.123052623552083
1682096062429681200,3.41568115234375,-2.3316613250911233,-0.08630991770923137,-9.087729576739669
1682096062449809200,3.43580908203125,-0.6917666050054132,2.3251281239300963,-10.920911218827962
1682096062469938000,3.45593798828125,-0.5155552479010075,5.506060007247329,-11.272670646822451
1682096062490067000,3.47606689453125,-1.2053132895629852,6.208111128771304,-10.10691421855688
1682096062510195000,3.49619482421875,-0.627941929218173,5.642524241179228,-7.6991925670921795
1682096062530324000,3.516323974609375,-0.510771009299159,5.031922153818607,-4.517992972749472
1682096062550453000,3.536452880859375,-0.5595199887685477,4.803664017808437,-1.9658622658282516
1682096062570581000,3.5565810546875,-0.26213117951750753,4.079536673554778,0.3410772904604673
1682096062590710000,3.5767099609375,0.5102518807958811,3.22656229237467,3.1609938416600225
1682096062610838800,3.5968388671875,1.507369871429354,3.8066681191846725,7.523280119869113
1682096062630966800,3.616966796875,1.798719985038042,3.3592923082143065,10.440477480125427
1682096062651096000,3.637095947265625,2.4230612594157455,2.712144158744812,10.320929894202948
1682096062671225000,3.65722509765625,2.3813528461076316,1.9707652354389429,9.399141796776652
1682096062691353000,3.67735302734375,3.2260791850328445,2.0444661392048,9.526403318077325
1682096062711482000,3.697482177734375,5.133065483522415,3.189472332647443,11.111980903172492
1682096062731611100,3.717611083984375,4.983057292884588,3.543953294560313,10.885955640780924
1682096062751739100,3.7377392578125,3.0970237660527227,4.830784079924226,7.349478381189703
1682096062771868000,3.757867919921875,3.935374870857596,6.9861571102172135,2.9035815073579547
1682096062791996000,3.777995849609375,3.230063286232948,7.216362288641929,-0.3203852155655622
1682096062812125000,3.798125,-2.2528502387046814,7.960961343038082,-1.8401830452829597
1682096062832254000,3.81825390625,-4.662857370758056,9.07567731989622,-2.873940402331948
1682096062852382000,3.8383818359375,-3.32774858443737,7.668478279876709,-6.612991321578622
1682096062872511000,3.858510986328125,-1.1181669940948487,6.228931213960051,-7.47447663373351
1682096062892640000,3.878639892578125,-1.650669942730665,4.501112272836267,-6.252625393280386
1682096062912768000,3.89876806640625,-2.984444265577197,2.646234639507532,-7.0491446045279496
1682096062932897000,3.91889697265625,-3.076743194568157,-0.40966976517140863,-8.32687847572267
1682096062953026000,3.939026123046875,-1.5563620120048522,-3.716091483941674,-8.347790915369988
1682096062973154000,3.959154052734375,-0.25328619428277016,-5.5296594940215344,-5.862815928354859
1682096062993283000,3.979282958984375,-0.6726292122066021,-6.470906909677386,-1.9673264931619165
1682096063013412000,3.999412109375,-1.8418676373690366,-7.739549711921811,0.758593092957139
1682096063033540000,4.0195400390625,-1.326515145498514,-9.882574717295169,1.632538658234477
1682096063053668900,4.0396689453125,-0.03192304195072502,-11.40350301234722,1.6605127068310974
1682096063073798000,4.0597978515625,0.5785212610322982,-11.464688425672053,2.6877210806280374
1682096063093926000,4.07992578125,0.16746672697160392,-10.547419266974925,3.6768098593890666
1682096063114055000,4.100054931640625,-0.6675888799518347,-10.350738172489404,3.2636177653104066
1682096063134184000,4.120183837890625,-1.0343797997962683,-10.294159960699082,1.8443652994036674
1682096063154312000,4.14031201171875,-1.4003928671360015,-9.355217899376154,-0.49894963860213754
1682096063174441200,4.160441162109375,-2.341325225493312,-5.253224479341506,-2.7958681516140698
1682096063194570000,4.180570068359375,-3.784908415058255,-2.0505910518258808,-3.0375860731780526
1682096063214698000,4.200697998046875,-2.923610734429955,-1.4511141695916652,-5.351473841169476
1682096063234827000,4.220826904296875,-1.9999626883506774,-0.020814824491739273,-8.02793703020215
1682096063254955000,4.240955078125,-3.234559428608417,3.0101392633259296,-10.566093572306633
1682096063275084000,4.261083984375,-3.6094010415047406,7.507457696837187,-13.603720562016964
1682096063295213000,4.281213134765625,-3.8531180279314516,7.483716755765676,-10.497757118183374
1682096063315341000,4.301341064453125,-3.308347133874893,6.2969935273170465,-6.294202435293793
1682096063335470000,4.321469970703125,-2.040329185530543,5.335636220568418,-3.5709868474364277
1682096063355598800,4.341598876953125,-0.30411840976700183,4.812859716176987,-0.7227864510387182
1682096063375727900,4.361727783203125,0.755818440612033,4.358360629197955,2.3117823201447725
1682096063395856400,4.3818564453125,1.5365344449847935,4.191802578036487,6.545658491539955
1682096063415985700,4.401985595703125,1.7264590509474276,3.7518215534925456,9.184272134649753
1682096063436114400,4.422114501953125,1.6202935091674326,2.654078923267126,9.40126887193322
1682096063456242700,4.44224267578125,1.6227894176363944,1.6564692766591906,8.732194137337803
1682096063476371500,4.462371337890625,1.4904682748585938,1.1592042301431298,7.619475471776723
1682096063496500500,4.48250048828125,1.932849054020643,1.6238205142498014,7.58814919014275
1682096063516628500,4.50262841796875,1.9647440754532812,2.089050546340644,8.174590649715066
1682096063536757500,4.522757568359375,2.6362042438805102,2.04769328455776,8.410031390705704
1682096063556886500,4.542886474609375,3.3149463860094546,2.528630881129205,9.01569952879548
1682096063577014500,4.5630146484375,4.414658270481229,5.498922410452366,7.033828961974382
1682096063597143300,4.583143310546875,4.94582792468667,9.101957424056529,2.7739672854512927
1682096063617272300,4.603272216796875,1.1837632095992565,6.889355024588108,-0.9059890552699565
1682096063637400300,4.623400390625,-0.9852484699457883,8.333966388157009,-4.682595505928993
1682096063657529600,4.643529541015625,-1.6723521977066993,8.535768478918076,-7.124644958931207
1682096063677658600,4.66365869140625,-2.4142916775047776,7.804599399459361,-9.173024764448403
1682096063697786600,4.68378662109375,-3.3812416896939275,5.763005893081426,-7.17287035291791
1682096063717915600,4.70391552734375,-3.2564088568449017,3.8376866500437257,-7.190982348191738
1682096063738044400,4.72404443359375,-2.2869278648734093,0.9960752766475081,-7.938012429127097
1682096063758172400,4.74417236328125,-0.3512988247454166,-1.780567657753825,-6.602769202771783
1682096063778301400,4.764301513671875,0.3464765191555023,-3.7209313251882787,-3.6104824070006605
1682096063798430500,4.784430419921875,-0.40271921538114547,-4.980224115285277,-1.005876247432828
1682096063818558500,4.804558349609375,-0.9082698596835136,-6.605817484426498,1.0510071825355292
1682096063838687500,4.8246875,0.32389585403501986,-8.239792897465824,2.353023262071609
1682096063858816500,4.84481640625,0.48022097273468967,-9.521552955436706,3.6611364894390106
1682096063878944500,4.864944580078125,-0.6339589975506067,-10.112093082499504,3.98458459970653
1682096063899073500,4.885073486328125,-1.9426205064505337,-10.18459483960867,2.9564643717616796
1682096063919202600,4.90520263671875,-2.955534981957078,-10.178450345504283,2.3662884018361567
1682096063939330600,4.92533056640625,-2.9683833576142784,-10.472640212583542,1.7358254297077655
1682096063959459600,4.94545947265625,-2.1277602162241935,-10.194992314982414,1.0127496403336524
1682096063979588600,4.965588623046875,-0.703185678511858,-7.5591042974442235,-0.8033160317808389
1682096063999716600,4.985716552734375,-0.329654527159594,-2.9517285754114386,-3.794782158818841
1682096064019845400,5.005845458984375,-3.6387668367207047,-1.4894319175481796,-5.734151554518938
1682096064039974400,5.025974365234375,-3.640889235702157,0.02984451864361763,-7.932142075788974
1682096064060102400,5.046102294921875,1.2150796274263411,4.737597554443776,-6.821701876553893
1682096064080231400,5.0662314453125,2.1335861458986995,7.743014757683873,-8.102544819679856
1682096064100360400,5.0863603515625,-1.9960417155146597,7.049616313692927,-9.59622036614716
1682096064120488400,5.106488525390625,-4.10327527653873,6.684639676728844,-10.242619158554076
1682096064140617700,5.12661767578125,-3.1432483416110277,5.6813727350115775,-7.3483473313331595
1682096064160746500,5.14674658203125,-2.336546759045124,4.928771575945616,-2.719670462596416
1682096064180874500,5.16687451171875,-1.331431559112668,3.5779125550463795,1.303400227370858
1682096064201003500,5.18700341796875,0.4225777620613575,1.9091741639226674,4.18738622289896
1682096064221132500,5.207132568359375,2.350768761143088,1.245868952639401,6.28423049185574
1682096064241260500,5.227260498046875,3.227483791133761,1.2513286793500185,7.6755194305598735
1682096064261389600,5.2473896484375,2.9078952789038417,0.9298623905494808,7.845104428327083
1682096064281518300,5.267518310546875,2.3406163465715943,0.09202858761698007,8.31393599204123
1682096064301646600,5.287646484375,2.7186381969392297,-0.1790577595114708,8.449181497833132
1682096064321775400,5.307775390625,3.7848008630305525,1.0763643266320229,8.482682785418628
1682096064341904400,5.327904296875,3.0543197658360004,1.8177572784632443,8.70791660517156
1682096064362032400,5.348032470703125,2.9257682047247884,2.1972128148958086,9.932939461398124
1682096064382161400,5.368161376953125,3.6965304589033123,4.441147341217101,8.504927350452542
1682096064402290000,5.3882900390625,4.740941311913728,7.107137359291315,1.9179051673889158
1682096064422418000,5.40841796875,2.795188352656364,5.218460624474287,-4.04579514747262
1682096064442547000,5.428546875,-0.08986907149553298,5.25140895435214,-4.687499644583464
1682096064462675700,5.44867578125,-0.46550044653005895,7.045699432510137,-4.533448900556564
1682096064482803700,5.4688037109375,-0.316588782424666,7.379962366780639,-5.306570285081863
1682096064502932700,5.4889326171875,-1.420776314473152,6.735590111765265,-4.384885063508153
1682096064523061800,5.509061767578125,-3.483881395435333,4.564165233598649,-4.071344014748931
1682096064543189800,5.529189697265625,-4.333979636657237,2.4568293812438844,-5.547327252659201
1682096064563318800,5.54931884765625,-3.837464531725645,-0.44211803657263515,-6.889826149231195
1682096064583447800,5.56944775390625,-2.468363459432125,-3.243849819523096,-6.396623529848456
1682096064603575800,5.589575927734375,-1.13912678001523,-5.172566303783655,-3.336549730530381
1682096064623704800,5.609704833984375,-0.3352794543692842,-6.570156388458609,-0.5754056862950324
1682096064643833900,5.629833740234375,-0.15913838602211325,-7.52505648189187,0.8623761235147714
1682096064663961900,5.6499619140625,-0.3610042627343908,-9.016878509446977,1.8078817811369894
1682096064684091000,5.6700908203125,-0.3891571019640192,-10.237695146155357,2.2369524123489857
1682096064704220000,5.690219970703125,-0.3318950360953808,-10.704280392247437,1.5801339327365158
1682096064724348000,5.710347900390625,-0.6444856522619724,-10.234550418388842,1.5328542951673267
1682096064744476700,5.7304765625,-1.9512533102393148,-9.628917936134338,2.4758430015325543
1682096064764605700,5.750605712890625,-4.030664213836193,-8.739393693453072,2.595727856585383
1682096064784733700,5.770733642578125,-5.213751716130972,-6.894149857649206,0.4545850116968155
1682096064804862700,5.79086279296875,-4.362183986878395,-2.8731670798718927,-2.311299505063891
1682096064824992000,5.810991943359375,-3.4445606079161166,-0.6853384716540575,-2.328343578845262
1682096064845119700,5.83111962890625,-2.5099580371022223,-0.7027987250208855,-2.112508871078491
1682096064865249000,5.8512490234375,-2.2253186731785535,0.35778584867715835,-3.949291752529144
1682096064885377800,5.871377685546875,-1.5961340504229067,2.4655475252285597,-6.661543463301658
1682096064905505800,5.891505859375,-1.511076178601384,5.429249739289284,-9.451530155661702
1682096064925634800,5.911634765625,-2.113027341994643,5.8981274802327155,-10.035761537969112
1682096064945763800,5.931763916015625,-1.3980921889781952,5.858169563853741,-8.467245562312007
1682096064965891800,5.951891845703125,-0.9280033186793327,4.692088433678448,-6.401660939493775
1682096064986020900,5.972020751953125,-0.5903484038829803,3.622911388202011,-4.101057600489258
1682096065006150000,5.99214990234375,0.3978425492554903,2.8534520333155986,-1.6541250516206025
1682096065026278700,6.012278564453125,1.4325246199339627,2.853399134084582,1.5968857455730436
1682096065046406700,6.03240673828125,2.123361104482412,2.7051711048617957,5.267218517902493
1682096065066535700,6.05253564453125,2.426300095206499,2.480168463516235,7.42447663128972
1682096065086665000,6.0726650390625,2.6199533663034438,2.639461492110789,7.9487927663385864
1682096065106793000,6.09279296875,2.868970212703943,2.6774720738142728,8.557137430161237
1682096065126922000,6.112921875,2.8243618401706216,3.2452044490024448,10.527665934234857
1682096065147050800,6.13305078125,2.6426561964988706,3.6372099626675247,11.75643966742754
1682096065167178800,6.1531787109375,2.086218245524168,3.380996775022149,11.402726767277716
1682096065187307800,6.173307861328125,1.7396908729642628,3.0958135134801266,9.429103219798206
1682096065207436800,6.193436767578125,2.881122422790527,5.716490810143947,6.8324038878321645
1682096065227564800,6.213564697265625,4.536684813737869,8.676618965110181,3.645854749155044
1682096065247693800,6.23369384765625,2.809849330693483,6.091375677660107,-0.7644055786281824
1682096065267822800,6.25382275390625,0.8476642920732498,6.171303200855851,-5.381574964922666
1682096065287950800,6.273950927734375,0.07887070761919021,7.4719778026551005,-7.185915712451934
1682096065308079600,6.29407958984375,0.2756066740971058,8.588882229468226,-7.472082432073354
1682096065328209000,6.314208984375,-1.1678420023679732,7.560858447635173,-5.24954316048026
1682096065348337000,6.3343369140625,-3.9802445246756073,5.564760033497214,-4.411666687449813
1682096065368466000,6.3544658203125,-6.458816074389219,2.7751521113216877,-6.335217167249321
1682096065388595000,6.374594970703125,-6.204914963078498,-0.5387012187540531,-9.47844446607232
1682096065408723000,6.394722900390625,-3.0957600297272205,-3.616130642020702,-8.06529323965013
1682096065428852000,6.41485205078125,-0.04409282422661781,-6.022922903680801,-3.8828129089713093
1682096065448980700,6.434980712890625,0.680916417428106,-8.116455271610617,-0.7707645922660827
1682096065469109800,6.45510986328125,-0.7985329622227698,-9.731144969421624,-0.5482452921688556
1682096065489237800,6.47523779296875,-1.46516724486351,-12.071367202109098,-1.7404601037710905
1682096065509366800,6.49536669921875,-1.130814951809123,-13.431242180895804,-1.0243640902817248
1682096065529495800,6.515495849609375,-1.0743441459160297,-12.622051119601727,0.29343057314455506
1682096065549623800,6.535623779296875,-1.995785694926977,-11.69425822880268,0.8774895214945078
1682096065569752800,6.5557529296875,-2.614218037521839,-11.402575960630179,1.0563473745197056
1682096065589881900,6.5758818359375,-2.9351942047178743,-10.686599774128197,1.2554980739891528
1682096065610009900,6.596009765625,-3.2455519472658634,-9.025552229768037,0.9761264213353394
1682096065630139000,6.616138916015625,-4.575200130093098,-5.157895388874412,-1.3942647396445274
1682096065650268000,6.636267822265625,-7.014522203958034,-0.015579261925816535,-4.4840690758377315
1682096065670396000,6.65639599609375,-6.255858383852243,1.3143605973243713,-5.577707193353771
1682096065690525000,6.67652490234375,-1.5797200912386178,4.432292711371183,-7.540487859779596
1682096065710653700,6.69665380859375,-0.6255155788540839,8.877817244759202,-8.732994932326674
1682096065730781700,6.71678173828125,-2.0525310799777507,10.14531730670929,-10.157068534779548
1682096065750910700,6.73691064453125,-2.459120999312401,8.768570688098668,-8.814258672562241
1682096065771039700,6.757039794921875,-0.8747942910611629,7.437788532805443,-6.966598423266411
1682096065791167700,6.777167724609375,1.4083622385799883,7.080138293206692,-4.756546877324581
1682096065811297000,6.797297119140625,1.8716110337257383,5.610732680121064,-1.631613360083103
1682096065831425800,6.81742578125,1.612939054751396,3.8192332939863203,0.4798761048197746
1682096065851553800,6.8375537109375,1.691655448591709,2.46306622980684,3.50106400090456
1682096065871682800,6.857682861328125,2.198803006696701,1.7488377637550234,6.259923149073123
1682096065891811800,6.877811767578125,1.8604969345152378,1.8345342257410286,8.135835094863175
1682096065911939800,6.89793994140625,1.3151403495252132,1.989688839356601,9.285935688835382
1682096065932068900,6.91806884765625,2.593743989291787,3.3771614346429706,11.224386800646782
1682096065952198000,6.938197998046875,3.759631934982538,5.145184960383176,13.28693541676998
1682096065972326700,6.95832666015625,4.308977297347784,5.584727885770797,14.448763857936859
1682096065992454700,6.97845458984375,3.8781653754264114,5.290242250615358,13.516343891859053
1682096066012583700,6.998583740234375,3.2184809849888083,4.906869540739059,10.758216565096378
1682096066032713000,7.018712890625,3.413400915020704,6.580891132962703,6.552801349031925
1682096066052840700,7.0388408203125,4.678858072966337,9.852049815171956,0.7681126164525747
1682096066072970000,7.058969970703125,1.8290122474491595,5.742311480098962,-2.5038778404057025
1682096066093098800,7.0790986328125,-1.9212486325979232,6.7332765741258855,-5.128706119269133
1682096066113227000,7.09922705078125,-3.1035937920928,6.4607929274201386,-7.93733496825695
1682096066133355800,7.119355712890625,-1.9002222111821174,6.363477631571889,-9.775368726551532
1682096066153484800,7.13948486328125,-2.3358839112222194,4.382905287867784,-7.502047946748137
1682096066173612800,7.15961279296875,-3.875209448230266,2.079285231390595,-7.990565623185038
1682096066193741800,7.179741943359375,-4.86608043423295,-0.5280629203617573,-10.828011985856294
1682096066213870800,7.199870849609375,-4.552574456787109,-2.861159831213951,-10.944633455199003
1682096066233998800,7.219998779296875,-3.0789538563549517,-4.773297521117329,-7.704195489946008
1682096066254127600,7.240127685546875,-2.1155193049408494,-6.739770027798414,-4.005793391951919
1682096066274257000,7.2602568359375,-1.9665584313988684,-8.492852881777287,-1.8003940557301044
1682096066294384600,7.280384521484375,-1.1576583889406173,-10.08832174628973,-0.3072048314750194
1682096066314514000,7.300513916015625,-1.1137596259813756,-11.336616172510384,0.8358668867737055
1682096066334643000,7.320642822265625,-1.2607716304779053,-11.855476380240917,1.1989110943704844
1682096066354771000,7.34077099609375,-1.0299345838904381,-11.396288843184708,1.0687988598138094
1682096066374900000,7.36089990234375,-1.127459723097086,-10.517357306188345,1.2508061167806386
1682096066395029200,7.381029296875,-2.170696856153011,-9.744460962590574,1.622045905792713
1682096066415157200,7.4011572265625,-4.088057249140739,-8.862277730321884,1.3614461736261845
1682096066435286300,7.421286376953125,-4.9188954940974705,-7.4172624621272085,-0.5153051455974579
1682096066455415300,7.441415283203125,-3.4395512553215024,-2.9855104335039853,-3.2828847758382556
1682096066475543300,7.461543212890625,-2.4687282010912894,1.9218389997065066,-3.7945313989281653
1682096066495672300,7.48167236328125,-6.405037722450494,2.516960609340668,-5.809056281116605
1682096066515801000,7.501801025390625,-8.584597099494934,4.604442591190338,-10.267457831734419
1682096066535929000,7.52192919921875,-4.091167490115762,7.051601934552192,-9.100867290732264
1682096066556058000,7.54205810546875,0.43350598331093787,9.51270563211441,-7.2450471158564085
1682096066576187100,7.562187255859375,-0.7534656669408083,8.837367745471001,-6.1468643406480545
1682096066596315100,7.582315185546875,-2.306200720620155,7.72463154425323,-7.275300215300917
1682096066616444200,7.602444091796875,-2.2707032907813787,5.48714546341896,-7.256408467826247
1682096066636573400,7.622573486328125,-0.4452852684319019,4.529709129506349,-3.1057191136837003
1682096066656702200,7.6427021484375,1.3141034076929092,3.7870106480345127,1.7917922316014765
1682096066676830200,7.662830322265625,2.1702502814292908,3.6263536376103755,5.395680062642693
1682096066696959200,7.682959228515625,2.153722340476513,3.1893606889665125,7.9522806084543465
1682096066717088300,7.703088134765625,2.8184765815243122,2.6586668355792757,9.951930577594041
1682096066737216300,7.72321630859375,4.123850447055697,2.146777051383257,11.346168429231643
1682096066757345300,7.74334521484375,4.850845455700159,2.1058207716166972,11.46223226469159
1682096066777474000,7.76347412109375,4.382063576346636,2.89419963876754,11.120195773810147
1682096066797602300,7.783602294921875,3.1678871083050963,3.501297225138545,10.388048204708099
1682096066817731000,7.80373095703125,3.8523698399126527,2.6004715439811346,9.300084041175246
1682096066837860000,7.823860107421875,5.320580105733871,2.645371300676465,8.270658575850725
1682096066857988000,7.843988037109375,5.974225800529122,5.196949634411931,6.09403817486763
1682096066878117000,7.8641171875,5.227621251529455,10.728925004160404,1.294403850966692
1682096066898246400,7.884246337890625,0.994120927709341,8.119832639089227,-0.03450315810441971
1682096066918374400,7.90437451171875,-0.38289449790529906,10.087566544008254,-2.7045184861719607
1682096066938503200,7.924503173828125,-1.4007318898320198,9.926823024344444,-4.616290849894285
1682096066958632200,7.944632080078125,-2.2169781303346157,9.581849895489215,-8.354457387521862
1682096066978760200,7.96476025390625,-3.63911170463562,7.448347336220741,-9.265653948307037
1682096066998889200,7.98488916015625,-5.564931298410892,4.773111643156409,-9.926819517213106
1682096067019018200,8.005018310546875,-6.073005908232927,1.7320979336172342,-9.920430692958831
1682096067039146200,8.025146240234376,-5.226004463982582,-1.1920493919074535,-10.037443791967629
1682096067059275300,8.045275146484375,-3.103116822230816,-4.510888109180331,-8.160795348596572
1682096067079404000,8.065404052734374,-0.18732874425053594,-7.332739427834749,-4.97654513451159
1682096067099532000,8.085531982421875,0.8513070324897766,-9.136602620980144,-0.8617302268266678
1682096067119661000,8.1056611328125,0.14049568140506744,-9.81804350067377,3.1394705766379833
1682096067139790300,8.125790283203125,-1.152474921888113,-9.978057537019252,4.5392695695340635
1682096067159918300,8.14591845703125,-1.0428548557400703,-11.315012243467569,3.749344934245944
1682096067180047400,8.16604736328125,0.39238545289337634,-12.397861255943775,2.4905443115800616
1682096067200176000,8.186176025390624,0.6623615006923675,-11.709051308786869,2.532535195091367
1682096067220304100,8.20630419921875,0.04895020112991333,-10.344454562175274,3.6787586553692817
1682096067240433200,8.22643310546875,-1.4526689978182314,-9.51742213924229,3.0851334217727184
1682096067260562200,8.246562255859375,-3.4896938811063762,-8.402368893253803,-0.12454407903552055
1682096067280690200,8.266690185546874,-4.583635950005054,-3.914047420668602,-3.421907462081313
1682096067300819200,8.286819091796875,-5.749439140021801,0.6585600625827908,-3.9298020391613244
1682096067320948200,8.3069482421875,-5.1535570674091575,0.32044337549358604,-5.1737306713879105
1682096067341076200,8.327076171875,-3.40919411098063,1.9579870024085044,-8.260664420580863
1682096067361205000,8.347205078125,-2.7540029403090474,4.570572470292449,-9.94533366354704
1682096067381334300,8.367334228515626,-2.3963794425867495,7.940344671466947,-11.760550025355816
1682096067401463300,8.38746337890625,-1.7299579989790916,8.388716215476393,-10.564110874056816
1682096067421591300,8.40759130859375,-0.4373381088197231,6.873313405847549,-8.003558960270881
1682096067441720300,8.42772021484375,0.30172672885749485,5.892198674705624,-4.503519626238942
1682096067461849000,8.44784912109375,-0.04387828642679378,5.589473618993162,-1.0104670823544264
1682096067481977300,8.467977294921875,-1.2551380085051058,4.786178337739408,1.7943395779967306
1682096067502106400,8.4881064453125,-0.9656623104661702,3.4213033587083217,4.19861371935606
1682096067522235400,8.5082353515625,1.243804129064083,3.06274974052906,7.055732166224717
1682096067542363400,8.52836328125,3.144319770234823,2.6641762466505168,9.448729711288212
1682096067562492400,8.548492431640625,3.20255159445107,2.171977982004732,10.415542945355176
1682096067582621400,8.568621337890624,2.6181518698394295,2.3126775154188275,11.220241371405123
1682096067602749400,8.58874951171875,2.7743220902383325,3.2719360963225363,11.966956395041942
1682096067622878200,8.608878173828124,3.728884330019355,3.6258000953808427,11.075483356380461
1682096067643007200,8.62900732421875,4.245072688192129,3.0131100958302617,9.78853917376995
1682096067663135200,8.64913525390625,4.6658162205636495,3.487443179570138,9.359688322788477
1682096067683264300,8.66926416015625,4.471678965342044,6.4560442715883255,7.1982742587655775
1682096067703393300,8.689393310546874,5.35967292971611,10.011264225572347,2.5320611478388306
1682096067723522300,8.709522216796875,3.6815304581701755,6.20562106552124,-1.7433184158116577
1682096067743650600,8.729650634765624,1.2506371899545192,8.109668387949466,-5.840795235204697
1682096067763779300,8.749779296875,-3.697881873512268,9.046365885215998,-6.486660943648219
1682096067783908400,8.769908447265625,-5.626488467657566,7.879049368026852,-10.376329709863661
1682096067804036400,8.790036376953125,-4.869285952275991,3.896848156325519,-11.303584840524197
1682096067824165400,8.810165283203125,-4.30154217891097,0.9920566886559128,-10.402028799265622
1682096067844294400,8.83029443359375,-3.7501919064641,-1.2840502147346735,-9.319205505752564
1682096067864422400,8.85042236328125,-2.857755575728416,-3.414557683840394,-8.962896743890642
1682096067884551200,8.87055126953125,-0.8200105614721774,-6.040337564340233,-6.644876990661024
1682096067904680200,8.89068017578125,1.4112474386274814,-7.641330160710215,-3.498305057585239
1682096067924809200,8.910809326171876,1.6334230398535727,-7.852587477558851,-0.06807634188234805
1682096067944937200,8.930937255859375,-0.5076795460898429,-8.138167921724914,1.9890034874409437
1682096067965066500,8.95106640625,-2.182027228462696,-9.029312459084391,3.049536623212695
1682096067985195500,8.971195556640625,-2.1963515218913554,-9.776263045042752,2.8479344389379024
1682096068005323500,8.991323486328126,-1.6983552384912968,-9.721404496651887,2.298123797148466
1682096068025452300,9.011452392578125,-1.9692472320914267,-9.084269207152724,3.280165580007434
1682096068045581300,9.031581298828126,-4.021069871538877,-8.163297102284432,3.602751520487666
1682096068065709300,9.051709228515625,-5.536098002636432,-7.696532992494106,2.0594360370606184
1682096068085838300,9.07183837890625,-4.173151945841312,-6.363641882222891,-0.8390776655137538
1682096068105967400,9.09196728515625,-1.8596166445493698,-3.422714979071915,-1.3444728269934654
1682096068126095400,9.112095458984374,-3.3774726925492287,-1.0125015107914805,-1.0359662652701138
1682096068146224400,9.132224365234375,-7.209065117371082,1.2471709751486777,-5.561366299405694
1682096068166353200,9.152353271484374,-6.816163531649113,0.6460755518019199,-11.512922002965212
1682096068186481200,9.172481201171875,-1.8987176518380642,2.541661919876933,-12.498963669115303
1682096068206610400,9.1926103515625,1.647345182222128,5.49451277731657,-9.051693802240491
1682096068226739500,9.212739501953125,0.9963491251528263,7.4725699233293525,-6.404335127139091
1682096068246868500,9.232868408203124,-0.9006348347604274,7.339784670171142,-5.113653511565923
1682096068266996500,9.25299658203125,-0.7858926032930612,6.780373256343602,-3.8763025041639803
1682096068287125200,9.273125244140624,0.5682213277488947,6.028983226633072,-1.109117426198721
1682096068307254300,9.293254150390625,0.7721393877506255,4.999858790081739,1.9540613533973692
1682096068327382300,9.31338232421875,0.3182008572638035,4.187521247455478,3.908602599266171
1682096068347511300,9.33351123046875,0.025460604470968245,4.0339860517352815,5.571431181824207
1682096068367640300,9.353640380859375,0.9717699796915054,3.4357597540840503,7.847084788489341
1682096068387768300,9.373768310546875,2.3076380599468944,2.7322669093191623,9.722133395448326
1682096068407896600,9.393896484375,3.362223685491085,3.0320901061102745,9.754654439824819
1682096068428025600,9.414025634765625,2.935549009504914,3.867613586273789,8.599596515706182
1682096068448154600,9.434154541015625,2.5352526373565194,4.2943899690687655,8.827879201635717
1682096068468282400,9.454282470703125,2.9351860214114187,4.127465130421519,10.573346319913863
1682096068488411600,9.47441162109375,3.412050669455528,4.544675812491774,10.492336262178421
1682096068508540700,9.494540771484376,4.108695548021793,7.560989380538463,6.139213533633947
1682096068528668700,9.514668701171875,2.916168017208576,8.718354997077583,0.6040659635901451
1682096068548797700,9.534797607421876,0.1123894577961415,6.269854760500788,-0.9286638284146785
1682096068568926500,9.554926513671875,0.25273667064122857,8.021751619565487,-3.0687282304167747
1682096068589054500,9.575054443359376,-0.08299173307195305,7.042956855803728,-7.2191048653483385
1682096068609183500,9.59518359375,-0.08213818498253822,7.048278927609324,-10.365746356528996
1682096068629312500,9.6153125,-2.0627415083467957,5.747281085205078,-9.363283132410048
1682096068649440500,9.6354404296875,-4.25355643889904,3.066034461288154,-9.450957908731699
1682096068669569500,9.655569580078126,-4.477945039999485,-0.8922194731146097,-10.20781204906702
1682096068689698600,9.675698486328125,-3.046828533297777,-3.7139088792055843,-8.854253998342156
1682096068709827600,9.69582763671875,-1.3808417789697647,-6.109280167663097,-4.533595615550875
1682096068729955600,9.71595556640625,-0.8054828544259071,-8.14699829391241,-0.32326924656927586
1682096068750084600,9.736084716796874,-1.2160814979452639,-9.299303119930624,1.6291706431061028
1682096068770213600,9.756213623046875,-0.9950387001413852,-10.32991399564743,2.1871248438626525
1682096068790341600,9.776341552734374,0.07901563251521437,-11.208356872344016,2.671030058068037
1682096068810470700,9.796470703125,0.04773322655558586,-11.858583698606491,2.6711913861095904
1682096068830599400,9.816599365234374,-1.4285165533363817,-11.51154486939311,2.2766104689985514
1682096068850727700,9.836727783203125,-2.921954783916473,-10.403813929116724,2.349267708930373
1682096068870856400,9.8568564453125,-3.5153497158885,-9.919911637520789,1.8047095808416604
1682096068890985500,9.8769853515625,-2.929707882261276,-9.211686795797943,0.015178279909491539
1682096068911114800,9.89711474609375,-2.5105998421370983,-6.108032797950506,-2.8512206210017204
1682096068931242500,9.917242431640625,-5.4717783829391,-1.3449629485979675,-4.262220222347975
1682096068951371800,9.937371826171875,-7.570528777778148,-0.24058628718554972,-5.878917752850056
1682096068971500500,9.95750048828125,-3.0962580423772335,0.37746874652951956,-9.213680599963665
1682096068991628500,9.977628662109375,-0.04968377610146999,2.9903163724809882,-11.167428649628162
1682096069011757600,9.997757568359376,0.0359065951615572,6.067770930188894,-13.522322381746768
1682096069031886600,10.017886474609375,-0.9735445881485938,6.990044765305519,-11.451611501955986
1682096069052014600,10.0380146484375,-1.4849819524019956,7.415195592725277,-6.783517984110117
1682096069072143600,10.0581435546875,-1.8064789286017418,7.28249392619729,-3.467546346706152
1682096069092272600,10.078272705078126,-1.7898188857018946,6.993635483273863,-1.52425071747303
1682096069112401400,10.0984013671875,-0.15773557001948355,5.830305405372381,1.3710212267011403
1682096069132529400,10.118529296875,0.9325754489004612,4.526698257252574,5.541154116982221
1682096069152658400,10.138658447265625,1.1780407402992248,4.508475787341594,8.382972118866443
1682096069172787700,10.15878759765625,2.045087778234482,3.514105561046302,10.0116126006186
1682096069192915700,10.178915771484375,4.0336102041602135,2.3144623530089854,10.551074866873025
1682096069213044700,10.199044677734374,4.1657904771625995,2.160441711859405,11.074559811794757
1682096069233173500,10.219173583984375,2.8503660499989985,2.7833658129155636,10.96136714785695
1682096069253302500,10.239302490234374,1.0308581284761429,3.2783173217922448,10.390913531011343
1682096069273430500,10.259430419921875,-0.5652338363707066,3.0874887527272104,9.562941196879743
1682096069293559600,10.2795595703125,-0.22584519311692564,3.043180239923298,9.398034712317585
1682096069313688600,10.2996884765625,2.2174599225021896,4.749741581223905,7.703472436368465
1682096069333816600,10.319816650390624,4.668924707973003,9.14341288551688,2.733130832672119
1682096069353945600,10.339945556640625,2.5549825892210003,8.164292543062567,-0.5785977603346109
1682096069374074400,10.360074462890625,0.11364274579286575,9.279826850566268,-2.4460545969903467
1682096069394203600,10.38020361328125,1.3138801203310488,9.729280929115413,-5.855810433506965
1682096069414332400,10.40033251953125,3.7585084839105605,8.180656233364344,-9.466461767333746
1682096069434461400,10.42046142578125,2.0861726528167726,6.738853497475385,-9.081689712053537
1682096069454590500,10.440590576171875,-2.9952246027886864,5.210775330668688,-9.195817611014842
1682096069474718200,10.46071826171875,-6.255011996155977,1.754890195661783,-10.787229893612862
1682096069494847500,10.480847412109375,-5.672600230491161,-2.408448796695471,-11.503645640575884
1682096069514976500,10.5009765625,-3.434515014719963,-6.105982879683375,-8.285004496589302
1682096069535104500,10.5211044921875,-2.446471945619583,-7.977681007170677,-2.6758260601729154
1682096069555233500,10.541233642578124,-3.835940098637342,-8.355193885102867,1.0650263555377721
1682096069575362600,10.561362548828125,-5.358855768114328,-9.338703986948728,2.451283729815483
1682096069595491300,10.5814912109375,-4.2333483481287955,-11.415560529887676,2.085792713588476
1682096069615619300,10.601619384765625,-2.629920633566379,-12.259126154470444,1.6428361803650855
1682096069635748400,10.621748291015624,-2.283800965024531,-11.783278574514389,2.2438971169203517
1682096069655877400,10.64187744140625,-3.5699861459612845,-10.344529380977153,3.1093811433225866
1682096069676005400,10.66200537109375,-4.604678738033771,-9.428215915569663,3.443977839592099
1682096069696134700,10.682134765625,-3.473756307262182,-9.84439725459218,1.6661445752382278
1682096069716263400,10.702263427734374,-0.6314601664721965,-8.794932040801644,-1.7690695276618003
1682096069736392400,10.722392333984375,0.4756453353822231,-3.005693682093918,-3.4415210940897465
1682096069756520400,10.7425205078125,-4.074638964641094,1.5311618120357393,-3.9204900209367275
1682096069776649500,10.7626494140625,-5.471251144194603,1.8814681186124682,-8.259032435464858
1682096069796778500,10.782778564453125,-1.0059621721506118,2.637676069998741,-13.76512342237234
1682096069816906500,10.802906494140625,2.3102082026958466,5.53917843299508,-16.372911719107627
1682096069837035500,10.823035400390625,2.424864509445429,7.818465427726506,-15.39569867157936
1682096069857164300,10.843164306640626,-0.11089662542250006,7.712664627605676,-11.503590695518255
1682096069877293300,10.863293212890625,-1.1659212634384633,6.622334903985261,-6.173931795793771
1682096069897421300,10.88342138671875,-0.2602548642516136,6.756591398739815,0.023917466682195663
1682096069917550600,10.903550537109375,-0.490052630919218,6.599346242585778,3.8764462965488433
1682096069937679600,10.9236796875,-0.9259002089202404,5.420278497326374,5.535871792665124
1682096069957807600,10.9438076171875,-0.05217327309595421,3.955227572318911,6.950424118056893
1682096069977936400,10.963936279296876,1.5400480060636996,3.2949855479985475,9.347136884251237
1682096069998065400,10.9840654296875,2.417096213531494,2.9580720992192626,11.7542371889472
1682096070018193400,11.004193359375,2.3712872330367563,2.291790210212767,12.698146517288684
1682096070038322400,11.024322509765625,1.8421441162228582,1.967932057839632,11.653112563943862
1682096070058451500,11.044451416015624,0.7596668596684932,2.3849428334236142,9.97507647538185
1682096070078580500,11.06458056640625,0.6925976490020751,3.0546719402745364,10.850793141984939
1682096070098708500,11.08470849609375,0.3805283898284659,3.91493677072376,11.354386807000637
1682096070118837200,11.104837158203125,0.46486916288919744,4.503326734015345,9.679445177322625
1682096070138966500,11.124966552734374,3.0021397890046235,6.930878290587663,4.697175819945335
1682096070159095600,11.145095458984375,4.113038545662165,9.137810827726126,1.049166523104906
1682096070179223600,11.1652236328125,0.022841946405172345,7.636552278783917,-0.08086275821924209
1682096070199352600,11.1853525390625,-2.767040116536617,10.119474424922466,-3.08376914768219
1682096070219481300,11.2054814453125,-3.0287422569870945,8.085989406198262,-8.255507768470048
1682096070239609600,11.225609619140625,-1.230273616361618,6.86629914317131,-10.373390733802317
1682096070259738400,11.24573828125,-1.8248190335430203,4.963018713462352,-9.223084388124942
1682096070279867400,11.265867431640626,-2.7175124077796933,3.11239669175148,-9.496217438650131
1682096070299995400,11.285995361328125,-2.024092921000719,0.09065583795905113,-11.067430982828139
1682096070320124400,11.30612451171875,-0.5462986881457269,-3.321357422095537,-10.333785868644714
1682096070340253400,11.32625341796875,0.0520797313272953,-5.656881267833709,-6.925026641950011
1682096070360382500,11.346382568359376,-0.5522879916884005,-7.3464511423230165,-3.2300159399598836
1682096070380510500,11.366510498046875,-1.5584709669828414,-8.055097424328327,-0.46590661617815493
1682096070400638700,11.386638671875,-1.3303764971017837,-9.199903419023752,1.2497931403458118
1682096070420767700,11.406767822265625,-0.3519008822917938,-10.51544591960907,2.2500842811226844
1682096070440896800,11.426896728515626,-0.057246941364742815,-11.316252598917483,2.652698867085576
1682096070461024800,11.447024658203125,-0.7619758672632276,-11.240175905930995,2.441958852109313
1682096070481153800,11.46715380859375,-2.243259403538704,-10.163884060013293,2.4756676449656485
1682096070501282800,11.48728271484375,-3.1903450238287445,-9.767749483719468,2.3525118054181338
1682096070521410800,11.507410888671876,-2.8438790260672566,-9.620450552040339,1.4011287801951169
1682096070541539600,11.52753955078125,-1.56216631436944,-8.610020879086852,-0.4414806154519319
1682096070561668600,11.547668701171874,-0.8292366549789905,-4.517103914955258,-2.5268261697947976
1682096070581797600,11.567797607421875,-3.5792005490303036,-0.09250292713046074,-3.9110862327754496
1682096070601925600,11.587925537109374,-4.012790703493357,1.2565201105132697,-9.26395240508616
1682096070622055000,11.608054931640625,-0.5182195717394351,2.4396920762211085,-12.828961347156762
1682096070642183700,11.62818359375,1.1143734470307827,5.500477823200821,-13.07061672487855
1682096070662311700,11.648311767578125,0.5278513234376907,9.231416747662424,-13.287566700410842
1682096070682440700,11.668440673828124,-2.567626966738701,8.576687933805584,-11.790514955508709
1682096070702569700,11.68856982421875,-2.261758352303505,7.660061749187111,-8.556569859406352
1682096070722698800,11.70869873046875,-1.3128385023236273,7.755417727661133,-1.7089508667856455
1682096070742826800,11.72882666015625,-1.7766075219511985,6.81141253772974,3.472596615833044
1682096070762955800,11.748955810546875,-1.6753952186644077,5.158178881990909,5.725795229583978
1682096070783084500,11.76908447265625,-0.20117257895218207,3.6427439236581325,7.217792613705992
1682096070803212500,11.789212646484375,1.146044012057781,2.960965482573211,8.377630757838487
1682096070823341600,11.809341552734375,1.6657400860905647,2.7030653647542,10.815661038327216
1682096070843470800,11.829470947265625,1.429607271182537,1.9412477567926048,11.806474741184712
1682096070863599900,11.849599853515626,1.5516156942605972,1.842901656591892,11.082596987777947
1682096070883728000,11.869727783203125,0.8936895456671714,1.6258850455641745,9.715677935698627
1682096070903856600,11.889856689453126,1.1787385863702744,2.105043065242469,10.299303753328322
1682096070923985700,11.909985595703125,1.5471674826800823,2.482636607195437,12.018915714859961
1682096070944113700,11.93011376953125,2.7138603150129317,2.9771301431715487,11.764807682800292
1682096070964242700,11.95024267578125,5.078632467067242,6.490610558056831,7.120822185772657
1682096070984371700,11.970371826171874,4.374202925974131,9.774304896712303,-0.15335340941250322
1682096071004500700,11.990500732421875,-0.5549031426228582,6.036892392322421,-3.2561797242641446
1682096071024628700,12.010628662109376,0.6853026696883142,9.585629998549818,-3.448479827186465
1682096071044757500,12.030757568359375,-0.8413315819203853,9.829535201025008,-4.264554802775383
1682096071064886800,12.05088671875,-2.644085937041044,10.047274281108379,-8.573850080031155
1682096071085014500,12.0710146484375,-3.8009424350142478,6.51797144319117,-11.363748509585857
1682096071105143800,12.091143798828124,-2.2072633765280245,3.4369495483905075,-11.108709918677807
1682096071125272800,12.11127294921875,-0.006650543930381536,0.7002671607166528,-8.701216230750083
1682096071145401600,12.131401611328124,0.37747722209692,-1.7675310660481451,-6.797637694877386
1682096071165529600,12.151529541015625,-1.685166232702881,-4.540982218670845,-5.173550638645887
1682096071185658600,12.17165869140625,-2.536124744015932,-7.036542312586307,-3.5784476848363873
1682096071205787600,12.19178759765625,-1.9626842203140258,-8.898024751007556,-1.16307347279191
1682096071225916700,12.211916748046875,-1.6062591385960578,-10.047292985808848,1.9468132819652557
1682096071246044700,12.232044677734375,-1.7075439225971698,-11.534772600245475,2.0242349598199127
1682096071266173700,12.252173583984375,-2.610688694351911,-12.29065058902502,0.748007401534915
1682096071286302700,12.272302734375,-2.68698867470026,-12.187205412119626,0.13035948731601238
1682096071306430700,12.2924306640625,-1.9704595304906367,-11.62448969604969,0.6050865388095379
1682096071326559700,12.312559814453126,-1.800752952170372,-11.124538771450519,1.1306091270387173
1682096071346688800,12.332688720703125,-1.9544249260127544,-10.30652610579729,0.4766624034702778
1682096071366817800,12.35281787109375,-1.2945020506441591,-7.804860680744051,-1.927494833511114
1682096071386945800,12.37294580078125,-1.6869629068613052,-3.9285850645869966,-5.403234423545003
1682096071407075000,12.393074951171876,-3.5411434978365897,-2.420626141223311,-7.018623209536075
1682096071427204000,12.4132041015625,-2.900799767684936,-0.6170616387635469,-8.102080124777554
1682096071447332000,12.43333203125,-2.5469173561871052,2.340102990221977,-10.435167683279513
1682096071467461000,12.453461181640625,-2.2391847014456987,4.069600093691051,-13.969191704499721
1682096071487590100,12.473590087890624,-1.196843640446663,6.219229904156923,-14.51481833860278
1682096071507719000,12.493718994140625,-1.5370798039078712,8.60588421767354,-11.094856749892234
1682096071527847200,12.51384716796875,-2.051388924205303,8.628278420311212,-6.71831047566235
1682096071547976000,12.533975830078125,-1.1014607739657163,7.901226713043451,-1.248175768277049
1682096071568105000,12.55410498046875,-0.42448330342173574,6.932393371325731,3.436251044732332
1682096071588234200,12.574234130859375,-1.0009762004315852,5.666048909151554,4.74601028574109
1682096071608362000,12.594362060546874,-0.2432125623022206,4.894334761075675,7.691685552462935
1682096071628491300,12.6144912109375,1.485697407194972,5.324143351173401,9.934564432251452
1682096071648620000,12.6346201171875,2.213877826231718,4.413939893078804,10.03466380586028
1682096071668748000,12.654748046875,1.361980426633358,3.4216865128070113,9.362450188717245
1682096071688877000,12.674876953125,0.9072107060194015,2.985302051450312,8.528900346714257
1682096071709006000,12.695006103515626,2.788114468747377,3.779805831222236,10.9100613235116
1682096071729135000,12.715135009765625,4.216310704088211,4.098361201012135,12.88937402254343
1682096071749263000,12.73526318359375,3.2565093946099277,3.6708550426378843,11.786970414769648
1682096071769392000,12.75539208984375,1.7197043159902095,4.089988801725209,7.190833879631757
1682096071789521000,12.77552099609375,2.2592519224405287,7.4764131547540424,2.548631174367666
1682096071809650200,12.795650146484375,4.167725244617462,8.19373432612419,1.5890379546821116
1682096071829778200,12.815778076171876,3.650011868834495,7.1953452195763585,-0.763699476185441
1682096071849907200,12.8359072265625,-0.15324293477535247,8.45414350415468,-5.638855781799554
1682096071870036200,12.8560361328125,-4.048794913810491,8.47249749149084,-10.141003535163401
1682096071890164200,12.876164306640625,-3.5937165656387804,7.020570836472511,-10.113497104078531
1682096071910293000,12.89629296875,-2.9978491060733794,4.193852204042673,-8.047047388863563
1682096071930422000,12.916422119140625,-2.768177596133947,1.3013088080495596,-8.197705567842721
1682096071950551000,12.936551025390624,-1.9100117837905883,-1.6971879482775925,-8.387893208655715
1682096071970679000,12.956678955078125,0.3684206399381161,-4.544685749363899,-7.465242941442131
1682096071990808000,12.97680810546875,1.326903268033266,-6.6282011656701565,-4.12520712236166
1682096072010937000,12.99693701171875,0.3713103700302541,-7.869050536581874,-0.8203969304412603
1682096072031066000,13.017066162109375,-1.6134908434152602,-9.101446551924944,1.0717577096194029
1682096072051194000,13.037194091796875,-2.958473373496532,-10.215096360856293,1.4350392331033943
1682096072071323100,13.0573232421875,-3.413745782935619,-10.640203933656215,0.8854851964235305
1682096072091452200,13.0774521484375,-4.019799120950698,-10.285320820683241,1.6616916874825953
1682096072111580200,13.097580078125,-4.297487935084105,-9.766417942854762,2.8205910894602537
1682096072131709200,13.117709228515626,-4.399195912933349,-9.137213446354865,3.5595793182373043
1682096072151838000,13.137837890625,-4.109310465049743,-9.241501503825187,2.2656039218157527
1682096072171967000,13.157967041015626,-3.9555426296174523,-8.516367612877488,0.7068810258984566
1682096072192095000,13.178094970703125,-3.3392695108830925,-5.918017006573081,-0.5521148270785808
1682096072212224000,13.19822412109375,-2.5852514707565306,-1.8380068702876566,-2.170853508019447
1682096072232353000,13.21835302734375,-2.69291923379302,-0.034407296514511104,-4.265516925805807
1682096072252482000,13.23848193359375,-2.3439947369635106,1.2726920776352286,-8.74777398378551
1682096072272610300,13.2586103515625,-0.6467395686686038,4.886444300086796,-12.61810910397768
1682096072292739000,13.278739013671874,1.891483608931303,9.731983173811436,-12.96167938029766
1682096072312868000,13.2988681640625,1.9640332968354224,9.040384472718834,-9.372411610761285
1682096072332996000,13.31899609375,-0.31119243980646133,7.740902880096435,-7.767537204521894
1682096072353125000,13.339125,-2.0870576189577577,6.421375109267235,-6.035675417748093
1682096072373254100,13.359254150390624,-1.998592569041252,5.10715012102127,-3.1024153959631917
1682096072393383000,13.3793828125,-0.735916566246748,4.063229097354411,0.20022154357135294
1682096072413511000,13.399510986328124,0.49245969206094736,3.6321339745774863,4.516565570294857
1682096072433639700,13.4196396484375,0.48020928229689597,2.7023274058684703,7.696183448404073
1682096072453768700,13.439768798828124,0.16005966558549553,1.4809364764034747,8.758676486071943
1682096072473897700,13.459897705078125,0.2525157944321632,0.3696221246823668,7.788229279416799
1682096072494025700,13.480025634765624,1.4275181899487972,0.579599046331644,7.288585813331603
1682096072514154800,13.50015478515625,2.8660803364813328,1.698556021760404,9.51306102142334
1682096072534283500,13.520283447265625,2.652074013185501,2.1202552474215626,11.507725603365898
1682096072554411800,13.540411865234375,0.9891419702529907,2.3581147399917244,11.666266644549369
1682096072574540500,13.56054052734375,0.36211131066083907,2.8516429380670187,10.783933190155029
1682096072594669800,13.580669921875,0.8948983369350433,5.536565620148181,8.572303435111046
1682096072614798800,13.600798828125,4.278652301710844,9.31146994306445,5.025058697789907
1682096072634926800,13.6209267578125,5.82023643130064,8.156973744481801,3.1404268544495104
1682096072655056000,13.641055908203125,1.4095184228777884,7.9034689390122885,-1.5144734198242424
1682096072675184600,13.6611845703125,-1.9066741638004778,9.588854805815219,-3.545702768576145
1682096072695313700,13.681313720703125,-2.232532403949648,9.76272551807761,-6.091473292815685
1682096072715441700,13.701441650390626,-3.5208430526077747,8.519342829295992,-7.953084326052665
1682096072735570700,13.72157080078125,-5.236576126879453,5.826287401902675,-8.967900251266359
1682096072755699700,13.74169970703125,-4.035420468452573,3.27802798345685,-10.364178668820857
1682096072775827700,13.76182763671875,-0.9814999310672282,-0.41729368417859075,-11.248550935566424
1682096072795956700,13.781956787109374,2.413421908932924,-3.778940446564555,-8.407499826401471
1682096072816085800,13.802085693359375,3.0772867999255658,-5.5870870161175725,-4.593097021311522
1682096072836214800,13.82221484375,0.47852702829837795,-6.441025566154718,-1.915048024392128
1682096072856342800,13.8423427734375,-2.907829227930307,-6.909720936268568,0.09559212531745433
1682096072876471800,13.862471923828124,-5.124386502504349,-7.876597298699617,1.6212959642082452
1682096072896600800,13.882600830078125,-4.9510430289864535,-9.313135245928168,2.9254063856750725
1682096072916729600,13.9027294921875,-3.193252435708046,-10.10965679526329,3.429691540086269
1682096072936857600,13.922857666015625,-2.018558521618694,-10.030694902229309,3.567581422907114
1682096072956986600,13.942986572265625,-2.384658901915699,-9.54259983511865,3.391574867659807
1682096072977115600,13.96311572265625,-3.2944916270017623,-9.3199572009027,2.9092461089909074
1682096072997244700,13.98324462890625,-3.4532957030355926,-9.287718480598926,1.5641718089729546
1682096073017372700,14.00337255859375,-2.00221426666975,-7.461361716094613,-1.1961468903541563
1682096073037501700,14.023501708984375,-2.0074445685386655,-4.001805199098587,-3.4611592760175465
1682096073057630700,14.043630615234376,-4.70936427038908,-2.4449586184471843,-5.775301895552873
1682096073077758700,14.0637587890625,-5.39078001564145,-1.5006465545237064,-10.176505056655406
1682096073097887700,14.0838876953125,-1.7276807016968727,-0.4264534344509244,-11.59535712506771
1682096073118016800,14.104016845703125,1.1292951218307017,2.9089944723173975,-12.697816846942901
1682096073138145800,14.124145751953124,0.7626724712252616,6.211002758559585,-14.176715680038928
1682096073158273800,14.144273681640625,-1.656957060176134,6.612297494095563,-12.679942167556286
1682096073178402600,14.164402587890624,-1.1676491101443767,7.052630693078041,-7.879003190797567
1682096073198531600,14.184531494140625,0.6959165642917156,7.792962737679481,-0.5737444750845432
1682096073218660600,14.20466064453125,0.6568529664039612,7.2146835417747495,3.8495319861382242
1682096073238788600,14.22478857421875,-0.04915712187886238,5.111032515412568,4.967169987922906
1682096073258918000,14.24491796875,0.39310266125202176,3.470570370702445,5.476023180902004
1682096073279046700,14.265046630859375,0.6642296326518058,2.558262049283087,6.44868689456284
1682096073299175700,14.28517578125,0.47646246045138685,1.4090364845797418,6.25726182090938
1682096073319303700,14.3053037109375,0.18571542730238288,0.8577589851081371,5.7717731369048355
1682096073339432700,14.3254326171875,1.3174211539387701,1.5881711087197063,6.938346142250299
1682096073359561700,14.345561767578126,2.4521628507375715,3.2945471565812823,10.35078259615302
1682096073379689700,14.365689697265625,2.5365935305714604,3.884076645296812,12.387395976030826
1682096073399818800,14.38581884765625,1.9696996520340442,3.9764872179687023,11.763922716659307
1682096073419947800,14.40594775390625,2.5615561223924157,5.036791221159696,10.524935047966242
1682096073440076800,14.426076904296876,4.4365959615230555,9.903906259137392,8.248952939999104
1682096073460204800,14.446204833984375,4.131805205452442,11.891216386663913,5.150552624896169
1682096073480333800,14.466333740234376,0.52999286551103,8.646192847186326,-0.30914719771444793
1682096073500462800,14.486462890625,-1.1679356720007956,10.549213749176262,-4.861235332289338
1682096073520591600,14.506591552734376,-1.8278141237057743,11.475078886783121,-5.380178542128205
1682096073540719900,14.526719970703125,-2.5809564039111135,11.709350583994388,-4.7698307217895985
1682096073560848600,14.5468486328125,-4.154399314576387,8.715780178153514,-5.965680675023794
1682096073580978000,14.56697802734375,-3.11405673391819,4.665409393328428,-10.08934816672802
1682096073601107000,14.58710693359375,-1.2799660141609608,-0.11063245806097984,-12.217176187491416
1682096073621235000,14.60723486328125,1.0376619632720947,-4.130569526177644,-9.921724824422597
1682096073641364000,14.627364013671874,1.322215548608452,-7.005248764178156,-6.43533232294917
1682096073661492700,14.64749267578125,-0.4740414073169231,-9.342640157353877,-4.250238692653179
1682096073681621800,14.667621826171874,-1.5369957788862287,-10.606282959353923,-2.7035399965286255
1682096073701749800,14.687749755859375,-0.7741220860004424,-11.98654138547778,-1.2230325591921805
1682096073721878800,14.707878662109374,-0.11561382667012512,-12.89836163111925,-0.028981179812550543
1682096073742007800,14.7280078125,-0.9004000030912458,-12.688013245809078,0.7598843018114566
1682096073762135800,14.7481357421875,-2.3564858236156403,-12.02302373470068,1.3756401186734437
1682096073782264800,14.768264892578125,-3.377611808758974,-11.556065563642978,1.0839017363995314
1682096073802393900,14.788393798828125,-2.4535750556230544,-11.843704109382628,0.35685821243822574
1682096073822523000,14.80852294921875,-1.0413327607393263,-10.606564698904752,-0.6398609150707721
1682096073842651000,14.82865087890625,-1.6889925129927694,-6.520690054500102,-3.1593589339345693
1682096073862780000,14.84877978515625,-6.528848811036348,-2.4724212103903294,-6.578536094269156
1682096073882909000,14.868908935546875,-7.9438009494006625,-0.9523246899873018,-10.464592515206336
1682096073903037700,14.88903759765625,-1.7295079171240328,0.28747137247920035,-12.061284199512004
1682096073923165700,14.909165771484375,2.59465292083025,4.025233420959115,-12.12155074442625
1682096073943294700,14.929294677734376,1.7482897744834422,8.881776211518048,-15.751810449564456
1682096073963423700,14.949423828125,-2.2532572120703755,8.433784606736898,-15.17199045395851
1682096073983553000,14.969552978515624,-3.0600410660922526,8.058888633304834,-11.418840866732596
1682096074003681000,14.989680908203125,-1.627835010588169,8.70776755208969,-3.089555914390087
1682096074023809800,15.009809814453124,-0.9057553195793181,8.837319814676047,3.3587370124191045
1682096074043938800,15.029938720703125,-2.209071887254715,7.626430113220215,5.520577777421474
1682096074064067800,15.05006787109375,-1.6560462289415299,6.290154621207714,6.361318992233276
1682096074084195800,15.07019580078125,-0.1713664743565023,5.348242604163289,7.966665692159533
1682096074104324900,15.090324951171874,1.2027449734449387,4.882472473846375,11.74547286773324
1682096074124454000,15.110453857421875,1.0231285571373998,4.262163523724675,13.864520200669764
1682096074144582700,15.130582763671875,0.3496094834189862,4.048240202537179,13.251008363342285
1682096074164710700,15.150710693359375,0.6631038434922695,4.299419487668573,10.8689203348279
1682096074184839700,15.170839599609375,0.8485586105644702,4.276764296007156,9.641806059280038
1682096074204969000,15.190968994140626,1.6407622967004776,3.3407486435249445,10.797069735103845
1682096074225098000,15.211097900390625,3.2037700303301215,3.7066000174969433,11.461812577974795
1682096074245226000,15.23122607421875,4.406051185655594,6.735435213464498,8.319161033213138
1682096074265354800,15.251354736328125,3.172569420902431,11.73655890891552,3.4506197618246075
1682096074285483800,15.27148388671875,-1.8175915665075182,8.913581216579676,-0.22002806780338285
1682096074305612800,15.29161279296875,0.10491729528456925,10.00607600927949,-5.175469039487838
1682096074325740800,15.31174072265625,0.5135027723506093,9.169641551750898,-7.868447894513607
1682096074345869800,15.331869873046875,-0.2596770643636584,8.994634528934956,-10.593236430776118
1682096074365998800,15.351998779296874,-2.3623944631375373,6.759800423914194,-10.946741241133212
1682096074386127600,15.372127685546875,-2.2486440191864965,3.3887481198012828,-12.348732191115618
1682096074406256000,15.392256103515624,0.2944737985871732,-0.14349194061160087,-11.108910994207859
1682096074426385200,15.41238525390625,1.6158206015370786,-3.759408063098788,-9.147157917264103
1682096074446514200,15.43251416015625,0.26325930676460263,-6.658641896641254,-6.5135115411728615
1682096074466643200,15.452643310546875,-1.830841654833406,-7.743385344561934,-3.2714024278372524
1682096074486771200,15.472771240234374,-2.947839751279354,-7.996783182525634,0.6278063201397657
1682096074506900000,15.49289990234375,-2.8133681524693963,-8.813139897665382,2.9973996087402104
1682096074527029000,15.513029052734375,-2.396603022209555,-10.396509743583202,2.9575919144868847
1682096074547158000,15.533157958984376,-1.0877483288250862,-11.554193924552202,2.397901683717966
1682096074567286000,15.5532861328125,0.14962240619063377,-11.895629526931046,1.7020605227500198
1682096074587415300,15.573415283203126,-0.2581106918297708,-12.204386848545074,0.9426023373961449
1682096074607544000,15.5935439453125,-1.788268733650446,-11.740282313352823,1.1387006635576487
1682096074627672300,15.61367236328125,-2.573303843331337,-11.143024860733746,0.11944237198233604
1682096074647801000,15.633801025390625,-1.5454665239810943,-8.485830435794592,-2.1363240464299915
1682096074667930000,15.65393017578125,-1.312906306862831,-3.795859432661533,-3.6024627666741607
1682096074688059100,15.67405908203125,-5.492748690253496,-1.2074971364080904,-5.184468338501453
1682096074708187100,15.694187255859376,-5.396653291589021,0.03285772898495197,-9.159189131319522
1682096074728316200,15.714316162109375,-1.5941010832905769,2.179737071698904,-11.760718367660045
1682096074748445000,15.73444482421875,1.6845932551205158,6.159190153735875,-13.124280510526894
1682096074768574000,15.754573974609375,1.8753180715501307,8.273748358559608,-12.672674222379921
1682096074788702000,15.774701904296874,-0.20027838832512496,8.228084339493513,-11.075457637417315
1682096074808831200,15.794831298828125,-0.7171907499235123,7.676735236090421,-8.629917419689892
1682096074828960300,15.814960205078124,-0.39257191537618635,7.755003886163235,-3.55347047996819
1682096074849089000,15.835089111328125,-1.0542086819905787,6.816091635456681,0.6280272694140673
1682096074869217300,15.85521728515625,-1.5760264974176883,5.178403339374065,3.260136937457323
1682096074889346000,15.875345947265625,-1.3428688989281654,4.120929883433878,5.5161482705414295
1682096074909475000,15.89547509765625,0.29626024361252784,3.6563074618473648,8.874934967321156
1682096074929604000,15.91560400390625,2.020004774904251,4.085200982926786,11.564181065559387
1682096074949732000,15.935732177734375,1.6996715817868708,3.6009915250778195,12.890880919975041
1682096074969861000,15.955861083984376,0.818000975215435,3.2270950840771198,12.89272917819023
1682096074989990100,15.975990234375,0.8411667467474937,3.5501816675558686,12.016615036702156
1682096075010119200,15.996119140625,1.9211340663075447,4.276961572144925,12.17173896291852
1682096075030247200,16.0162470703125,2.0313887770973147,3.7774522538334128,10.936572898340225
1682096075050376200,16.036376220703126,2.3270330807685853,3.4745258303299544,8.759508845242857
1682096075070505200,16.056505126953127,4.136161062574386,7.927681589248776,5.970660801523923
1682096075090634000,16.076634033203124,2.4099369894266127,9.805428349250555,2.9751456913560625
1682096075110762200,16.09676220703125,-0.9550704815641045,8.186861517745255,-2.102089183872938
1682096075130891000,16.11689111328125,-0.49785015292763707,9.529289102646707,-5.643821879774332
1682096075151020000,16.13702001953125,-0.7940377696953713,8.38527104345858,-8.166359996986388
1682096075171149000,16.157149169921876,-1.2129986564338207,8.158404654067754,-9.159745596158505
1682096075191277000,16.177277099609373,-3.3685751003444193,6.13997165852487,-9.419659099626541
1682096075211406300,16.19740625,-3.671276775181293,3.286099646231532,-10.83236550489068
1682096075231535000,16.21753515625,-1.954815386635065,-0.2942880667567253,-11.197035852384566
1682096075251664100,16.2376640625,-0.3734733932830393,-3.4166882661283013,-8.470835111236571
1682096075271792000,16.257792236328125,-0.7097745553828776,-6.026069385012984,-4.843880877384543
1682096075291921200,16.277921142578126,-1.5785601075485347,-7.560169880849123,-2.060480577677488
1682096075312050200,16.29805029296875,-2.0042248758397996,-8.779873003357649,0.03390577673316002
1682096075332178200,16.31817822265625,-2.077478328099102,-10.072425088977813,0.9920248322129249
1682096075352307200,16.33830712890625,-1.8841420139968394,-11.384099223697184,1.847476709422469
1682096075372436000,16.35843603515625,-1.1701834509275852,-12.25840602350235,1.9850679015576838
1682096075392565000,16.37856494140625,-1.1049109874848275,-11.783633963823318,2.3767028283447025
1682096075412693200,16.398693359375,-2.0447885030269624,-10.611485204172133,2.5510434962064026
1682096075432822500,16.418822509765626,-1.8994553184628487,-10.50559555672407,2.413418401801586
1682096075452951600,16.43895166015625,-0.8358593610543757,-10.84890630532503,0.9721166011720895
1682096075473080300,16.459080322265624,-0.3606979367315769,-8.552011173188687,-1.9472411519885062
1682096075493208300,16.479208251953125,-2.316512855798006,-3.0118530815064903,-5.005522222670913
1682096075513337300,16.49933740234375,-5.308545969069003,-0.810956901922822,-6.248142110386491
1682096075533466400,16.51946630859375,-3.370776409780979,-0.590858106970787,-11.9824766202569
1682096075553595400,16.539595458984376,0.3970493895838037,1.777287320908904,-15.32063437050581
1682096075573723400,16.559723388671873,-0.24463176318407057,6.428660005578398,-16.565004316759108
1682096075593852200,16.57985205078125,-3.260042244911194,9.344795289561151,-14.731203665989636
1682096075613981400,16.5999814453125,-3.693385731136799,8.717105873799323,-10.371675746577978
1682096075634110500,16.6201103515625,-0.5187070995280518,7.486210326147079,-5.939601061871647
1682096075654238500,16.640238525390625,1.1981669980049132,6.6941492633521555,-0.9592997896969317
1682096075674367500,16.660367431640626,0.4043827646791935,5.975360357517004,2.081371390014887
1682096075694496500,16.68049658203125,-0.7469312967360019,5.497732908406853,4.650882855325937
1682096075714625300,16.700625244140625,0.004013272495660931,5.064973944070935,8.701437180024385
1682096075734753300,16.720753173828125,1.4899018731474876,4.805329905194044,11.475873836553095
1682096075754882300,16.74088232421875,2.4338299061894415,4.1832238425225015,12.259935132765769
1682096075775011300,16.76101123046875,1.925706196528673,4.000793391707539,11.931223402881622
1682096075795140400,16.781140380859377,1.2307727980554104,4.438156050446629,11.612266174292564
1682096075815268400,16.801268310546874,1.237726270455122,4.734291206374764,11.559840406006574
1682096075835397400,16.8213974609375,1.711560757023096,4.427454331429303,11.942413489937781
1682096075855526400,16.8415263671875,1.8649264413952826,3.7914310948252674,11.377669482910633
1682096075875655400,16.861655517578125,1.4691383404515683,4.485018339386582,9.107864602273702
1682096075895783400,16.881783447265626,2.22291921082139,8.731873234820366,5.977293371406197
1682096075915912400,16.901912353515623,2.582232999718189,10.257034637397528,3.8301860651552673
1682096075936041500,16.92204150390625,0.9144890264593064,8.26430540743172,1.0691478193819521
1682096075956169500,16.94216943359375,-0.5058953660868108,10.106979685008525,-4.755707503890991
1682096075976298200,16.96229833984375,-2.4294752181112766,9.575884849604964,-9.21978651562333
1682096075996427300,16.98242724609375,-3.2649440454781056,9.31469825746119,-11.51051727991104
1682096076016556300,17.002556396484376,-4.6412136942267415,7.196483868217467,-10.600463459420203
1682096076036684300,17.022684326171873,-4.301973263804614,4.231690644049644,-10.309221920752524
1682096076056813600,17.0428134765625,-3.0896552831113335,0.7259674191623926,-10.958932029664515
1682096076076942300,17.0629423828125,-1.5317878349795937,-3.513630052489042,-10.279143593353032
1682096076097071400,17.0830712890625,-0.2710157661102712,-6.427459982138871,-7.247963295564055
1682096076117199400,17.103199462890625,0.03132218998074531,-7.852358344978094,-3.085025869745016
1682096076137328400,17.123328369140626,-1.4035891789592803,-8.985126111355424,0.2730740138143301
1682096076157457400,17.14345751953125,-2.55571090349555,-9.993084425759315,0.9694926824092864
1682096076177586400,17.16358642578125,-1.492275032019615,-11.729392670547961,0.0959942763775587
1682096076197714400,17.18371435546875,-0.07372004685774446,-13.35428285985589,-0.790954562857747
1682096076217843200,17.20384326171875,0.36990313358083365,-13.2823831602931,0.08214812185466289
1682096076237972200,17.22397216796875,-1.387663149422407,-12.08991875784397,1.086716793820262
1682096076258101500,17.2441015625,-2.8565409392416474,-11.606084270787239,0.9214590116024017
1682096076278229500,17.2642294921875,-3.1666707182526586,-10.951325061792135,-0.7255126611322165
1682096076298358500,17.284358642578123,-1.6940823834776877,-8.539531046321988,-2.734072497436404
1682096076318487300,17.3044873046875,-1.2807915051996708,-3.1257699680656192,-4.555465502053499
1682096076338616300,17.3246162109375,-5.290546201997995,-0.858216081225872,-5.515350982683897
1682096076358744300,17.344744384765626,-5.211686015772819,0.39671500653028485,-9.379105555441974
1682096076378873300,17.364873291015623,-1.3906114778339862,3.9804163741111753,-11.655965030765532
1682096076399002400,17.38500244140625,1.2310463542997836,7.812206367331743,-13.769790245139598
1682096076419131000,17.405130859375,0.8814508263409138,10.071025743573903,-12.44042847803831
1682096076439259000,17.4252587890625,-1.3936813867986202,10.352364312386513,-8.620071732980012
1682096076459388000,17.445387939453123,-2.4600503891170025,8.574154031413793,-6.2224599721193306
1682096076479516700,17.4655166015625,-2.7703274676442144,7.23635235274732,-3.2280729891985653
1682096076499645700,17.485645751953125,-1.8043068452596664,6.2758572157859795,0.6960644483298063
1682096076519773700,17.505773681640626,-0.5276794740021229,5.781527053678035,4.71467991245389
1682096076539903000,17.525903076171875,-0.3900140475869179,5.134579395216703,7.449469618248939
1682096076560032000,17.546031982421876,0.5233434540918097,4.401839413179457,9.825864403557777
1682096076580160800,17.566160888671874,2.848832264560461,3.863771816153824,11.544522425365447
1682096076600288800,17.586288818359375,3.301756065046787,3.8332819853439926,12.23960546144247
1682096076620417800,17.606417724609376,1.8034920217454433,3.847136030912399,11.988746202045679
1682096076640546800,17.626546875,0.24104740189127621,3.9546103172034024,11.95304828119874
1682096076660674800,17.6466748046875,1.4198410794496534,4.249209641866385,13.364156603616475
1682096076680803800,17.666803955078127,2.5196178458511826,4.639925407981872,13.508255277949571
1682096076700932900,17.686932861328124,2.9359692807435986,6.011015023744106,10.35355907512903
1682096076721061600,17.7070615234375,2.7478537700295447,9.258147518199682,3.332340003880858
1682096076741189600,17.727189697265626,-0.6326010070703924,9.158888102546333,-1.6443150207459927
1682096076761319000,17.74731884765625,-1.7073580446362495,9.76837784475088,-1.4643167655140161
1682096076781448000,17.767447998046876,-0.6529318474374711,11.210672748070955,-2.9940216567397115
1682096076801577000,17.787576904296873,-1.2946131098031997,9.596208091187476,-9.736799634182452
1682096076821705000,17.807705078125,-2.92265153400898,6.769352096113562,-12.427459106349945
1682096076841833700,17.827833740234375,-3.341667219674587,4.250438014617562,-11.765775651049614
1682096076861962800,17.847962646484376,-3.100579997229576,1.3607465009242294,-11.02184762778282
1682096076882091800,17.868091796875,-1.8173685714066028,-2.660503403356671,-10.69504377734661
1682096076902219800,17.8882197265625,0.16938026897534728,-7.130524664619565,-9.05759104358554
1682096076922348800,17.908348876953124,1.6213514937877653,-10.324702398478983,-6.317872064694762
1682096076942477800,17.928477783203125,1.2787211286664009,-10.918721599829196,-2.944441341012716
1682096076962606800,17.94860693359375,-0.8422681321181357,-11.184912868392466,-0.5339502248346806
1682096076982734800,17.96873486328125,-1.8208815479636191,-12.221209388530253,0.78522332572937
1682096077002863900,17.98886376953125,-2.231342171251774,-12.898697146683931,1.4094564635574818
1682096077022993000,18.008992919921877,-2.7541619302630425,-12.94953535351753,1.3589374056756496
1682096077043122000,18.029121826171874,-3.489983803963661,-12.361730788898468,0.6853957547992467
1682096077063250000,18.04925,-3.9890883408665654,-12.153220140409468,0.5112304435044527
1682096077083378700,18.069378662109376,-3.388322587865591,-11.76339313982725,0.5369336245596409
1682096077103507700,18.0895078125,-1.9658266099929809,-9.733464936801791,-1.3907862498790025
1682096077123636700,18.10963671875,-1.2580337299466133,-4.349993198347091,-4.986334122598171
1682096077143764700,18.1297646484375,-4.418639449071884,-0.7219710430026054,-5.813842930871248
1682096077163894000,18.14989404296875,-5.654591111069918,2.012806387832761,-8.97319777315259
1682096077184022800,18.170022705078125,-1.053562127715349,4.019541931319236,-12.84067633486986
1682096077204151800,18.19015185546875,2.8447113852381705,8.969519961422682,-14.852315432488917
1682096077224279800,18.21027978515625,2.127601226270199,11.557276692998409,-13.582777142709492
1682096077244408800,18.230408935546876,-0.8136556394875049,11.765402726083993,-9.53777168430984
1682096077264537900,18.250537841796874,-2.1906698229931294,10.078317069625854,-5.620626882147788
1682096077284667000,18.2706669921875,-2.348680264431238,8.914080398273468,-2.0899638617932794
1682096077304795000,18.290794921875,-1.8407333726420998,7.547607336395979,1.2480606174647808
1682096077324923600,18.310923583984376,-1.2650012308716774,6.610052930039167,4.733517299392819
1682096077345052700,18.331052734375,-2.665563609355688,5.8866387024909255,7.715773115015029
1682096077365182000,18.351181884765627,-3.247178379423916,4.215947715994716,9.317761152163147
1682096077385310000,18.37131005859375,-0.8637832138337195,2.974887917202711,10.525947439879179
1682096077405439000,18.39143896484375,0.8754723364531993,3.1174107205212116,13.075811955434084
1682096077425568500,18.411568603515626,-0.5378314501821995,3.3160204449817536,12.263127791327237
1682096077445697500,18.431697509765623,-1.775107784912735,3.8407387310907244,11.411120501613617
1682096077465825500,18.451825439453124,-0.821954681277275,3.6711996182918547,10.820403848940133
1682096077485954600,18.47195458984375,0.8731142290197312,2.9052997094526885,10.657517472028731
1682096077506083600,18.49208349609375,1.4834299006544052,2.3412138740733264,9.90668741428852
1682096077526212400,18.51221240234375,2.0711166841126976,4.141813389247655,6.868242093932628
1682096077546340400,18.53234033203125,2.8532325453460214,9.753703422710299,2.8826877724111077
1682096077566469400,18.552469482421873,0.32763036438822746,9.07310191645026,1.753831041997671
1682096077586598400,18.572598388671874,-0.9274518222764134,9.681051443475484,-1.470838860759139
1682096077606727700,18.592727783203124,-0.8498927817776799,10.012820222842693,-6.61332975975275
1682096077626855400,18.61285546875,-1.3592881188094614,8.917394637387991,-11.811880399620533
1682096077646984700,18.632984619140625,-2.379035801336914,7.364452078437805,-12.147309455060958
1682096077667113500,18.653113525390626,-3.387360464835167,4.832891281336545,-10.871972708135843
1682096077687242500,18.673242431640624,-3.0640976480066775,1.5941747330486773,-10.131004703718423
1682096077707370500,18.69337060546875,-1.4711946884594858,-1.9571885455071925,-10.413629220688343
1682096077727499500,18.71349951171875,0.4310381318926811,-6.375884108680486,-8.811918831437826
1682096077747628500,18.733628662109375,1.7689222281455992,-8.873294798898696,-4.78508382050097
1682096077767757300,18.75375732421875,2.35788999132514,-9.79512264381349,-0.6425742656826973
1682096077787885300,18.77388525390625,1.247914486992359,-10.782762977331876,1.7100176192343235
1682096077808014300,18.794014404296874,-1.0988625741660594,-11.606160258632897,0.8187386418402195
1682096077828143600,18.8141435546875,-1.5878981369972227,-12.787254541283845,-0.8856605529904366
1682096077848272600,18.834272705078124,0.13803250616192816,-13.249204528790711,-1.3607184438735247
1682096077868400600,18.854400634765625,0.3963770798128098,-12.399648723882436,0.15716975283026693
1682096077888529700,18.87452978515625,-2.21555189692378,-11.386579934597014,0.6088192955970764
1682096077908658400,18.894658447265623,-4.070728513199091,-11.133912164473532,-1.4495260236173868
1682096077928787500,18.914787353515624,-2.389145545810461,-9.484205513817072,-3.9005332745790477
1682096077948915500,18.93491552734375,0.4878852237522602,-4.335667735874653,-5.514937725707888
1682096077969044500,18.95504443359375,-0.996097780740261,-0.7125736845821142,-5.2727662151575085
1682096077989173500,18.975173583984375,-1.9250000940859318,-0.33121757522523404,-7.941955029273033
1682096078009302300,18.99530224609375,-2.621814484000206,0.9465215566664934,-11.903840890437364
1682096078029430300,19.01543017578125,-1.5256851341903208,7.174590600839257,-13.475775734627247
1682096078049559600,19.0355595703125,-0.3175894473671913,11.92848316426277,-11.158548593080043
1682096078069688600,19.0556884765625,-1.9127075987458229,10.63044124905467,-8.895047781023383
1682096078089817600,19.075817626953125,-1.6334370683789252,9.267259045416116,-6.708634884822368
1682096078109945600,19.095945556640626,-1.5467232460439204,8.331462880903482,-2.8997143105357885
1682096078130074600,19.11607470703125,-1.7527379860639571,7.511823490831255,0.9170189833283424
1682096078150203400,19.136203369140624,-2.024497410148382,5.614723795583844,4.274987349462509
1682096078170332400,19.15633251953125,-1.8569336890757082,4.66008118404299,6.904782310822606
1682096078190460400,19.17646044921875,-0.7181705547410995,4.482601341372728,9.251912423202395
1682096078210589400,19.19658935546875,0.929104484854266,4.392959648892283,11.888640983217954
1682096078230718500,19.216718505859376,1.207758929149434,4.413077431030572,13.076266713464259
1682096078250847500,19.236847412109373,0.25392566123008725,3.635503451010585,12.724944507843254
1682096078270975500,19.2569755859375,0.9219653536893427,3.347737771759927,11.417613370764254
1682096078291104500,19.2771044921875,1.828092209994793,3.228323456828296,11.433068129527568
1682096078311233500,19.297233642578124,2.2781202890396117,3.1547932334542272,10.341852270722388
1682096078331362600,19.317362548828125,1.8911377181030808,3.9589688046738503,8.098727307218313
1682096078351490600,19.337490478515626,2.852742716002464,8.724436947339772,4.296624011731147
1682096078371619600,19.35761962890625,3.1784172701478,9.131505005580186,2.574317988809943
1682096078391748400,19.377748291015624,0.33790275207757947,7.839678896147012,-0.6486462790727615
1682096078411876600,19.397876708984374,-2.426756168410927,10.073411761927604,-3.9861616397649047
1682096078432004600,19.418004638671874,-4.446175106251239,9.578540917071699,-7.348908472347259
1682096078452133600,19.438133544921875,-3.7086487667202945,8.264125959211587,-10.372863495057821
1682096078472262700,19.4582626953125,-1.6330257110990583,5.630623375505208,-10.468810425162316
1682096078492391700,19.4783916015625,0.0026738953843712804,2.711104878824949,-9.746313896980881
1682096078512519700,19.498519775390626,0.7234243105508387,-0.345087695145607,-9.39222514925599
1682096078532648400,19.5186484375,-0.11124167600050568,-3.3657062669098377,-8.139796984231472
1682096078552777500,19.538777587890625,-1.0743429038070142,-6.250825065860152,-5.918569379758835
1682096078572906500,19.558906494140626,-1.2088310153603552,-8.461023326796292,-3.1864690591782328
1682096078593034500,19.579034423828126,-0.7812928544126451,-9.867211143946648,-0.5786813469648361
1682096078613163500,19.59916357421875,-1.3431497616961598,-10.992037011408804,0.9858528655797243
1682096078633292800,19.619292724609377,-1.492105520671606,-12.04678338047266,1.108395541664958
1682096078653421600,19.639421630859374,-1.392014330369234,-12.791373082518577,0.1930260791093111
1682096078673549600,19.659549560546875,-0.8796528370082378,-12.823790666520594,0.0323468568533659
1682096078693678600,19.6796787109375,-1.5896530178405344,-11.963928571653366,0.969036755335331
1682096078713807600,19.6998076171875,-3.158262955391407,-11.54918223387003,0.6686883656263352
1682096078733936600,19.7199365234375,-4.194863426911831,-11.252448527526855,-1.2603390842795372
1682096078754064600,19.740064697265623,-2.454706690001488,-8.970702449205517,-2.8721202011674642
1682096078774193400,19.760193359375,-0.31398294730782506,-3.9009798493027685,-4.699280098748207
1682096078794322400,19.780322509765625,-2.8672400279104706,-0.9693681792467832,-6.013314532858133
1682096078814451700,19.80045166015625,-4.87796025711894,1.7201503061920402,-9.931135626846551
1682096078834579500,19.820579345703123,-2.0183967551857234,4.46620491784513,-12.770265997081994
1682096078854708700,19.840708740234376,1.7763573465824125,7.662484592419863,-13.06874859291911
1682096078874837800,19.860837646484374,2.8662299740850923,9.862584068667887,-12.464718869686125
1682096078894966500,19.880966552734375,0.2829343135714531,10.201458296126127,-11.226245580255984
1682096078915094500,19.901094482421875,-1.1421487581849097,8.550245917081833,-7.390755563473701
1682096078935223600,19.9212236328125,-1.2952128292620182,7.587898430252075,-1.1562468416422604
1682096078955352600,19.9413525390625,-0.9288801015138626,6.807805453148484,3.5387340986073017
1682096078975481600,19.961481689453127,-0.5577894021162763,5.904406998893618,5.344463670146465
1682096078995609600,19.981609619140624,0.46065936317443845,5.0399447167545555,7.423892109400033
1682096079015738400,20.00173828125,1.2584709523200988,4.6759532914355395,11.09316865067482
1682096079035867600,20.02186767578125,1.043603043758869,4.271154639431834,13.247786478686331
1682096079055996700,20.04199658203125,0.5999532675743102,3.895722951687872,12.54360243678689
1682096079076124700,20.062124755859376,1.0470458776891232,3.9000042822688816,11.546014125227927
1682096079096253700,20.082253662109373,1.686517501181364,3.572284778292477,11.720654068297147
1682096079116382700,20.1023828125,1.9627835890352725,3.4692253858342763,13.171645488291977
1682096079136511500,20.122511474609375,0.9063760818261652,3.9184959245100615,12.763498402643203
1682096079156639500,20.142639404296876,0.6425837641634047,5.978005903589725,9.835959096592664
1682096079176768500,20.1627685546875,2.0425883626341816,9.721635967320204,4.040602255004644
1682096079196897500,20.1828974609375,0.8969162526287138,8.25026285355389,-1.0965876149713993
1682096079217026600,20.203026611328124,-1.2103427350975573,9.673854809969663,-3.4887931328743695
1682096079237154600,20.223154541015624,-3.1795594259202478,10.535756886231898,-5.367307954639196
1682096079257283600,20.24328369140625,-3.4060721795678135,9.918894569432736,-11.00452473706007
1682096079277412600,20.26341259765625,-4.249532590210437,6.7629971741288895,-12.75902797923088
1682096079297541600,20.283541748046876,-4.224732495474815,4.490692877891659,-10.551482863152026
1682096079317669600,20.303669677734376,-3.316542130768299,1.3079092292279004,-9.203370218351482
1682096079337798700,20.323798583984374,-1.9688743071258068,-2.2210347122490406,-9.119164579445123
1682096079357927700,20.343927734375,-0.7581844390910119,-6.137411452648044,-7.725926844760775
1682096079378056400,20.364056396484376,0.35475809835381805,-9.259408331915736,-4.978764564126729
1682096079398184400,20.384184326171876,1.027278443358466,-9.913764805328846,-1.385678697606921
1682096079418313700,20.404313720703126,-0.046792182845808564,-11.01491286008358,-0.2955132246375084
1682096079438442800,20.42444287109375,-0.7122340773642063,-12.688148854887485,-1.1848445750951766
1682096079458571800,20.44457177734375,0.7206909400641918,-13.805923050272463,-1.5952432390630245
1682096079478699800,20.46469970703125,1.175027018501237,-13.289663964951037,-0.7117495087176561
1682096079498828500,20.48482861328125,-1.1238929705262184,-12.249295665329694,-0.49596097818017004
1682096079518957800,20.504957763671875,-2.9147920526802538,-11.855802543455361,-1.3622136508673428
1682096079539086800,20.5250869140625,-4.083813620221615,-11.306647735226154,-2.9366806438833475
1682096079559214800,20.54521484375,-2.050814923709631,-8.099726839649676,-4.586127182298898
1682096079579344000,20.56534375,-0.9446364735722541,-1.507393106174469,-6.720108464995026
1682096079599472600,20.58547265625,-4.713443064135313,1.0343535693764685,-7.121165884643792
1682096079619601700,20.6056015625,-4.072026151794195,2.1064052935063837,-10.99348428760767
1682096079639729700,20.625729736328125,-0.7691045500993728,4.591995197549462,-13.076238656413555
1682096079659858700,20.645858642578126,0.5183417733469977,8.461997140264511,-14.04485689407587
1682096079679987700,20.66598779296875,-1.3962380855441092,11.453404815113544,-11.70311490447521
1682096079700116700,20.68611669921875,-0.7328431501507758,11.872242806124687,-7.078228660193085
1682096079720244700,20.70624462890625,-0.8091688494622706,9.897192440712452,-3.3741713129162787
1682096079740373800,20.726373779296875,-2.129475203448534,8.340836273926495,-0.3823088800370693
1682096079760502800,20.746502685546876,-2.9928818390548226,6.9561845812797545,2.9713305169820785
1682096079780631800,20.7666318359375,-3.3937224010825155,5.605778272584081,5.785877065581083
1682096079800760800,20.7867607421875,-2.6515362530469893,4.57996865966916,8.770055373698472
1682096079820888800,20.806888916015627,-1.4387375030994414,3.798969089114666,11.17584459579587
1682096079841017600,20.827017578125,-0.07823478433582931,3.112025812612474,12.66792439750433
1682096079861146600,20.847146728515625,1.438269885587692,2.9915584814965723,13.47780051845312
1682096079881275600,20.867275634765626,1.9512229151010512,2.9020310630455612,13.089348313355446
1682096079901403600,20.887403564453123,1.409407363718748,2.6840388849839565,12.431712087619305
1682096079921532700,20.90753271484375,1.1032734494108707,2.3066867505714295,11.919600769627094
1682096079941662000,20.927661865234374,1.1990379356205463,2.444394262562692,12.39650867229104
1682096079961790700,20.947790771484375,0.964645753834769,3.621173896884918,10.422598124563693
1682096079981918700,20.967918701171875,0.7725953148245811,8.42449187773466,5.076054725533724
1682096080002047700,20.9880478515625,0.5166588252287357,10.656059674435854,2.349489827248454
1682096080022176800,21.0081767578125,-0.8778759635288268,7.233946460649371,0.032981647625565526
1682096080042305800,21.028305908203127,-1.01155378161259,11.288459752106666,-4.0361254018515345
1682096080062433800,21.048433837890624,-4.1181963668167585,11.036298177939653,-7.371908824184536
1682096080082562600,21.0685625,-4.5331519634366035,9.933442150223254,-10.790150164973735
1682096080102691600,21.088691650390626,-3.604949907314777,6.348397551339865,-11.80349134145975
1682096080122820900,21.10882080078125,-0.7299616033650934,3.092635175704956,-11.308569643199442
1682096080142948600,21.128948486328124,0.7698375405490397,-0.1403355224072933,-10.150765050721168
1682096080163078000,21.149077880859377,-0.46577875201478597,-2.923585599988699,-9.084690647435188
1682096080183207000,21.16920703125,-0.909689224962145,-6.354076181498169,-7.900750327703356
1682096080203335700,21.189335693359375,0.2705260098319501,-9.378876422861218,-5.512226713183522
1682096080223463700,21.209463623046876,0.9638953738588839,-10.615624788194895,-1.3891016577929258
1682096080243592700,21.2295927734375,-0.4783739566285163,-11.269481495392322,0.21680852123498914
1682096080263721700,21.2497216796875,-2.207519250985235,-12.588955490207672,-1.3562275621950626
1682096080283850800,21.269850830078123,-1.7597065099023281,-13.98424197411537,-2.32502758616507
1682096080303978800,21.289978759765624,-0.5823299326002598,-13.846367288863657,-1.6463661080569028
1682096080324107500,21.310107421875,-1.077385047981888,-12.783155873793362,-0.08836568119525909
1682096080344236800,21.33023681640625,-2.800696886944771,-11.964930442172289,-0.08064648512005805
1682096080364365800,21.35036572265625,-3.8562043035089966,-10.958469088327885,-1.8412743476510047
1682096080384493800,21.370493896484376,-2.92968216329813,-7.55776866492629,-4.194068477141857
1682096080404622800,21.390622802734374,-3.913502646267414,-1.537639775878191,-5.154059756234288
1682096080424752000,21.410752197265627,-6.306658012241125,1.6591998706668614,-7.776261193725467
1682096080444881400,21.43088134765625,-4.798476970559358,3.849042156794667,-12.597020723241567
1682096080465009200,21.451009033203125,-1.997427032393217,6.18870441751182,-14.662717574262619
1682096080485138400,21.471138427734374,0.1590296832169406,9.419068147996068,-14.517424137187003
1682096080505267500,21.491267333984375,-0.3359457727909088,11.597522194147109,-10.868331136763095
1682096080525396200,21.511396240234376,-1.1235177074730396,11.302255637747049,-6.948737772405147
1682096080545525200,21.531525146484373,-0.9292577026546001,9.533588261145352,-3.5212370203614234
1682096080565653200,21.5516533203125,-0.4788520224690437,8.334249296751619,0.532526329511404
1682096080585782300,21.5717822265625,-0.637125352627039,6.9197735437273975,4.357322518321872
1682096080605911300,21.591911376953124,-1.5845242766499519,5.458340224695205,6.974396529796719
1682096080626040300,21.612040283203125,-2.121019509792328,5.141766676372289,8.833915559190512
1682096080646168300,21.632168212890626,-0.9567617225866765,4.114933273367583,11.450571052992343
1682096080666297300,21.65229736328125,1.1764017409205436,3.389857834608853,12.963635190540552
1682096080686426400,21.67242626953125,2.075768163180351,3.122497522266209,13.3979396307528
1682096080706555400,21.692555419921874,1.9670354012608526,3.210198894333839,12.62941025019288
1682096080726683400,21.712683349609375,1.18076103210859,3.5162457879453894,11.521602153027057
1682096080746812400,21.7328125,0.5280559791643172,3.14086612264961,11.506867525231838
1682096080766941200,21.752941162109376,1.586194840210676,2.9953645957812665,11.470782650893925
1682096080787070200,21.7730703125,3.1863995010733603,4.414257580725849,8.743797481369972
1682096080807198200,21.7931982421875,4.621072238951921,9.549786531752348,3.391026586127281
1682096080827327200,21.8133271484375,0.7394482475042343,9.229234727448224,1.7719021207392214
1682096080847456300,21.833456298828125,-3.4875849261283873,9.752827808919548,-1.8452549417197703
1682096080867585500,21.85358544921875,-3.8381870007812973,10.680863276302814,-4.034031059920787
1682096080887713500,21.873713623046875,-3.577299683845043,9.988326417577266,-9.411896064409612
1682096080907842300,21.89384228515625,-4.1420156338214875,7.489345701563358,-11.234993534857034
1682096080927971300,21.913971435546873,-3.2390392043709753,5.213547717991471,-10.622411087334156
1682096080948100400,21.934100341796874,-1.48114558910951,2.5804531305640936,-10.511506242072581
1682096080968228400,21.954228271484375,-0.46430553765706717,-0.6925222456783056,-10.086523756957053
1682096080988357400,21.974357421875,-0.07356558694839477,-4.244706777489185,-8.890793046188353
1682096081008486100,21.994486083984373,1.3323393216073511,-8.181843981844187,-7.356541159182787
1682096081028615200,22.014615234375,3.39373292247653,-9.402730176657437,-3.0165234114050863
1682096081048743200,22.0347431640625,2.732134807372093,-10.296468822163343,0.08655015620589256
1682096081068872200,22.0548720703125,0.5604617996633052,-11.211214015340804,-0.25314181737601754
1682096081089001500,22.07500146484375,0.3451917400419712,-12.611237464642524,-1.177799917280674
1682096081109130500,22.095130615234375,1.3671253883063792,-13.48119308350086,-1.7404565966397523
1682096081129258500,22.115258544921875,0.7693547254681586,-13.13747550766468,-0.9115653940975665
1682096081149387300,22.13538720703125,-0.7490905205965042,-12.15761925215125,-0.4836912791937589
1682096081169516300,22.155516357421874,-2.1533891629993915,-11.913019053149222,-1.263190966579318
1682096081189645300,22.175645263671875,-2.6383330726027485,-10.56188501470089,-3.2476381058901547
1682096081209773300,22.195773193359376,-0.8310884203255176,-5.7936710804581635,-5.611095668214559
1682096081229902300,22.21590234375,-2.826899834215641,0.07253916651010513,-3.9030654234051703
1682096081250031400,22.23603125,-4.503146116751432,2.6986978171944616,-7.59277392733395
1682096081270160400,22.256160400390623,-3.09521993150115,4.416601221242547,-13.094782028841971
1682096081290289400,22.276289306640624,0.13935003676759078,7.5717276321738956,-16.254023473876714
1682096081310417400,22.29641748046875,0.9536135607540607,10.943896957617998,-12.747414698326587
1682096081330546400,22.31654638671875,-2.7405799796342847,12.27599194907546,-7.14161070677936
1682096081350675500,22.336675537109375,-5.908519110387563,10.54791260344982,-5.5779602913320065
1682096081370804200,22.35680419921875,-6.062876143884658,8.747018196982145,-3.4297301185309883
1682096081390932200,22.37693212890625,-3.9738112767577167,7.88162710956037,1.6701953119337558
1682096081411061200,22.397061279296874,-3.298554054135084,6.191064716902375,6.3875646096020935
1682096081431189800,22.417189697265623,-2.3651404008448123,4.459823400114477,8.705311391109227
1682096081451318800,22.43731884765625,-0.6253812849499285,3.31055311948657,10.042485877788065
1682096081471446800,22.45744677734375,1.5879532281853257,2.4440824201345444,11.778393140560388
1682096081491575800,22.477575927734375,2.7118612501502035,2.5379659879684446,13.8518851755023
1682096081511704600,22.49770458984375,2.2033038252472874,2.742530529180169,13.811578884077072
1682096081531833600,22.51783349609375,0.9315538507677614,2.845741312807798,12.821571821427344
1682096081551961600,22.537961669921874,0.553487284475565,2.4961487074583766,12.201058580905197
1682096081572090600,22.558090576171875,1.1689525939583778,2.554642397481203,11.366737754529714
1682096081592219600,22.5782197265625,1.8631424805879593,3.4591125726208087,9.598843700388073
1682096081612348700,22.5983486328125,3.170954094660282,7.249695233923196,5.333277674743533
1682096081632477000,22.618476806640626,3.186697899498045,10.172270780086517,2.772031348952651
1682096081652605700,22.638605712890627,-0.2756909183144569,7.232108139306306,1.6041285563081502
1682096081672734700,22.658734619140624,-1.7157846583284437,10.351340230035781,-2.832031936407089
1682096081692863700,22.67886376953125,-3.8433062434911727,9.112602736711501,-7.746061870294809
1682096081712991700,22.69899169921875,-2.971400659608841,9.17995017979741,-11.03499820125699
1682096081733120800,22.719120849609375,-3.936651174403727,7.480750307175517,-8.93800371017456
1682096081753249500,22.73924951171875,-4.10885103084445,4.995458509296179,-9.56734849192798
1682096081773378600,22.759378662109373,-3.1353637258410454,1.4844307482600212,-11.929240704631805
1682096081793507800,22.7795078125,-0.80647990263924,-3.67271879068315,-13.167621639603375
1682096081813635600,22.799635498046875,1.731696513209492,-6.366118501469493,-8.617611480346321
1682096081833764900,22.819764892578124,1.6921230661034583,-7.974572519761323,-3.2273306463986633
1682096081853893600,22.8398935546875,-0.5383141191326082,-9.084284404721856,-0.5976414835005999
1682096081874022700,22.860022705078126,-2.2584793306328357,-10.266507399141787,0.35487083801329133
1682096081894150700,22.880150634765624,-2.651995687252283,-11.275848107814788,0.4517489114880562
1682096081914279700,22.90027978515625,-2.323017707647383,-12.01461129566431,0.36722646171748635
1682096081934408700,22.92040869140625,-1.9964463507927952,-11.458920363664626,0.8828542633980512
1682096081954537700,22.940537841796875,-2.8002853835344315,-10.696282963752745,1.1974041969388722
1682096081974665700,22.960665771484376,-3.6788171075582503,-10.589134256154297,0.8193073816388845
1682096081994794500,22.98079443359375,-2.4747242266356944,-10.895064829909801,-0.6737152538776398
1682096082014923800,23.000923828125,-0.6751052469313145,-10.029780709993839,-3.0950574344158173
1682096082035052800,23.021052734375,0.0015559972703456878,-3.858770354604721,-4.517217896723747
1682096082055180800,23.041180908203124,-4.346408910119533,1.812000906893611,-5.63800588697195
1682096082075309800,23.061309814453125,-6.49760728507638,2.1679753222346303,-11.073975289905071
1682096082095438600,23.0814384765625,-0.4710684559207409,3.7741298314124343,-13.118367487090826
1682096082115567600,23.101567626953123,3.1096973696649073,7.754030657216906,-9.556810731300711
1682096082135695600,23.121695556640624,0.6063644497908651,9.430667984896898,-5.99245060852766
1682096082155824600,23.14182470703125,-2.885069114589691,10.91861872397661,-6.4853025147765875
1682096082175953700,23.16195361328125,-1.56118212563768,10.494251155889033,-5.183590971145033
1682096082196082700,23.182082763671875,0.3065187489069998,7.686469863641261,-2.9484453159570694
1682096082216211700,23.202211669921876,-0.2636639420427382,5.3717585043072695,-0.05765139397978782
1682096082236339700,23.222339599609374,-1.126227697084099,4.567918156391382,2.249391622683406
1682096082256468700,23.24246875,-1.476965234684944,3.8672155268669126,4.30540294599235
1682096082276597800,23.26259765625,-0.4377040195226669,3.476013146278262,8.134849590957165
1682096082296726800,23.282726806640625,0.11299290358200668,3.1319390120893713,10.850527769047021
1682096082316854800,23.302854736328126,-0.28743030981644985,2.628085819354653,11.844328378760814
1682096082336983800,23.32298388671875,-1.168138939487934,1.8211457518577574,11.282432162380218
1682096082357112600,23.343112548828124,-0.07030147058591246,2.613938051536679,12.876551950371265
1682096082377241600,23.36324169921875,0.5262662462033331,3.0987028051808476,13.627307189309596
1682096082397369600,23.38336962890625,0.1695754992865026,3.0985841472372413,12.48261459186077
1682096082417499400,23.40349951171875,-0.0633422990977764,4.289901717738807,9.161437202507257
1682096082437628200,23.423628173828124,1.5990785794422029,8.841298070657253,3.3044337598234415
1682096082457757200,23.443757080078125,1.471713597767055,7.572178298550844,0.6190957749396562
1682096082477885200,23.46388525390625,2.5629367630958555,7.525815775826573,-1.4864122774660586
1682096082498014200,23.48401416015625,2.3022984524846075,9.292755890244244,-4.576605320715904
1682096082518143200,23.504143310546876,0.14351999766230583,9.795002232304215,-8.094820947429538
1682096082538272300,23.524272216796874,-2.002127903560549,9.694825701805948,-8.213683473697305
1682096082558400300,23.544400146484374,-3.5577240457594392,8.047871564728021,-7.698398201844095
1682096082578529000,23.564529052734375,-3.199553581678867,4.054247333997488,-9.18377236843407
1682096082598658000,23.584657958984376,-1.35506699398309,-0.731671768283844,-10.436970348787307
1682096082618787300,23.604787353515626,-0.48061698631495237,-5.327535916221142,-9.030466305294633
1682096082638916400,23.624916259765627,-0.6708990274131298,-7.82897805391252,-5.249776969236136
1682096082659044400,23.64504443359375,-1.3483565365590153,-8.5737284994781,-1.8859511092454193
1682096082679173000,23.665173095703125,-1.4691875864207744,-10.034022000825404,-0.40691432898342605
1682096082699302100,23.68530224609375,-0.9467733394704758,-11.632308260846138,0.9124649732857942
1682096082719431200,23.70543115234375,-1.480578895137459,-12.679943336600065,1.1298077475279569
1682096082739559200,23.72555908203125,-2.8008851029932496,-12.507986349004506,0.6270902808248996
1682096082759688200,23.745688232421877,-3.8425007723271842,-12.20409341855645,0.41323242608904837
1682096082779817200,23.765817138671874,-4.222178134816884,-11.911204697203635,0.07130699436664581
1682096082799946200,23.7859462890625,-3.7724247810602187,-11.940518469971417,-0.23873276827335357
1682096082820074000,23.806073974609376,-2.317129088000208,-10.924743344336747,-1.4226198965132235
1682096082840203300,23.826203369140625,-1.350984400844574,-6.650396046343445,-4.709248535054922
1682096082860332300,23.846332275390626,-2.433524785763025,-0.5321341153234244,-6.347483359104395
1682096082880461300,23.86646142578125,-4.476863674503565,0.763130736386776,-7.059293658098578
1682096082900589300,23.88658935546875,-2.3560966781675816,2.783416666319966,-10.381644182884692
1682096082920718000,23.906718017578125,-0.6726911715269088,5.149452554699779,-12.238845582985878
1682096082940847000,23.92684716796875,1.1546914288938044,10.090295092189312,-13.658581448495386
1682096082960976100,23.94697607421875,0.07841478054523468,11.096970381045342,-9.887253230500221
1682096082981105200,23.967105224609377,-1.2307353886544703,10.419539906036853,-7.630933269858359
1682096083001233200,23.987233154296874,-1.6058207471787929,8.375597790706157,-5.039778712537885
1682096083021362400,24.007362548828127,-1.2602245179891585,7.304390116184949,-1.6538216847598552
1682096083041491200,24.0274912109375,-1.0947954708576202,6.162685010114312,2.7023089934289453
1682096083061620200,24.0476201171875,-1.0004419474244117,4.5797722603142255,6.300161051437258
1682096083081748200,24.067748291015626,-0.27276832713233307,3.2357378247380253,8.515627608165145
1682096083101877200,24.087877197265627,1.2046832480311394,2.763623293830454,10.700925236600638
1682096083122006300,24.10800634765625,2.8893256029903887,2.7559464755922556,12.444230208408833
1682096083142135000,24.128135009765625,3.0972108130574223,3.2875311403393743,13.310917180860041
1682096083162263000,24.148262939453126,2.2749545184850692,2.751357101975381,12.545920650601387
1682096083182392000,24.16839208984375,2.1507307574450967,2.6311180266574024,11.925678628236055
1682096083202521000,24.18852099609375,2.068871973925829,2.7990429822579026,12.272193725836276
1682096083222650400,24.208650390625,1.7230021884918212,3.694111999584734,12.085749947726725
1682096083242778400,24.2287783203125,1.161099030913785,5.286822213038802,9.260850347417593
1682096083262907400,24.248907470703124,2.361449729633331,9.963864176493882,3.18352774502933
1682096083283036200,24.2690361328125,1.051134023785591,8.008449654921888,-0.018040683603286742
1682096083303165200,24.289165283203126,-0.38605814956799145,10.035347696471213,-0.9296136764854193
1682096083323294200,24.309294189453126,-2.221040411337465,11.018943723034859,-2.0988509326040745
1682096083343422200,24.329422119140624,-3.436989880400896,11.407697541427611,-6.907763372460007
1682096083363551200,24.34955126953125,-5.341010314822197,9.817703308933973,-10.687405245292187
1682096083383680000,24.369679931640626,-6.946288625687361,6.89373250901997,-11.003213069939612
1682096083403809300,24.389809326171875,-5.768826562058925,3.469263087496161,-11.045616625905037
1682096083423937000,24.40993701171875,-2.560581139880419,-0.4911427642434835,-11.504985364747046
1682096083444066000,24.430066162109377,0.44017771615982054,-5.038285843631625,-10.30257239973545
1682096083464195000,24.450195068359374,0.8884053216539323,-8.18843797328174,-7.6332456384539595
1682096083484324000,24.470323974609375,-0.00108479956202209,-9.912574718761444,-4.3919571938514705
1682096083504452000,24.4904521484375,0.872325343664363,-11.776444344580172,-2.4592811583101746
1682096083524581000,24.5105810546875,2.1464953118324277,-13.480678704237937,-1.3508902928203343
1682096083544710100,24.530710205078126,0.904158259646222,-14.276334576654433,-1.4696633872389793
1682096083564839200,24.550839111328123,-1.0571920817155391,-13.547685955584049,-1.0657213520646094
1682096083584967200,24.57096728515625,-2.620505154967308,-12.861354381239414,-0.5664578252077103
1682096083605096200,24.59109619140625,-2.9954595805883404,-12.30253158095479,-0.557082678619027
1682096083625225000,24.611224853515626,-2.91246799364686,-11.694522432696818,-0.5734440308332442
1682096083645354000,24.63135400390625,-1.9772411534547805,-9.87906758595705,-2.124437793803215
1682096083665483000,24.65148291015625,-1.5210405232548714,-4.5506718380361795,-4.699435581570864
1682096083685611000,24.671611083984374,-3.9611318279266357,-0.3526151680409908,-5.286902877059578
1682096083705740000,24.691739990234375,-3.0696424226522443,1.6603087086915969,-8.681956234484911
1682096083725869000,24.711869140625,0.7365782450258731,4.03622827770412,-11.431977411681412
1682096083745998000,24.731998046875,0.9434334544580429,8.681635916489363,-13.895426211065054
1682096083766126000,24.7521259765625,-1.116704593392089,11.76997836343646,-13.90643509633541
1682096083786255000,24.772255126953127,-2.9115456181049346,12.375410939204691,-9.386625429552794
1682096083806384000,24.792384033203124,-1.8974632678627967,10.653578963536024,-4.789431494316458
1682096083826513200,24.81251318359375,-1.2033681468445807,8.488364338186383,-1.9742443097263573
1682096083846641200,24.83264111328125,-0.8911633151251822,6.56994888318777,0.43513738390505313
1682096083866770000,24.85277001953125,-0.590969019999355,5.601275115945935,3.8409342536628244
1682096083886899000,24.87289892578125,-0.5249240378141403,4.624100939123332,7.6056480219542975
1682096083907028000,24.893028076171873,1.4169628936648369,3.1638050996884703,9.724425305777787
1682096083927157200,24.9131572265625,3.0779438025295733,2.353439733918011,10.89821657193899
1682096083947285200,24.93328515625,2.259669271069765,2.1334286172494292,11.278693560373782
1682096083967414000,24.9534140625,0.8447462857346981,2.7469217498764396,12.604770314455031
1682096083987543000,24.97354296875,-0.46818800511360165,3.354252852742374,13.574322618097066
1682096084007672000,24.993672119140626,-0.1747730679295957,4.1331686027601355,12.490194671726226
1682096084027800000,25.013800048828124,0.06526069993972777,3.3737200620174406,10.196326193934679
1682096084047929000,25.03392919921875,-0.2966670708477497,2.905388264518976,8.72755595614314
1682096084068058000,25.05405810546875,0.5387945961259305,6.823956377482414,7.370993462905287
1682096084088187000,25.074186767578126,1.2063714933790266,12.11132862561941,3.1600843255996702
1682096084108315000,25.09431494140625,-1.4364054068900645,7.3819631852090355,-2.3224217875808475
1682096084128444200,25.114444091796877,0.24282924380674956,8.090998758792876,-8.67457255397439
1682096084148573200,25.1345732421875,2.962736876159906,9.825482126241921,-6.081223701480031
1682096084168702200,25.1547021484375,3.0859330477178095,9.642474752321839,-5.375326425921917
1682096084188830200,25.174830322265624,0.47366760556846854,6.319798064321279,-8.16165927194953
1682096084208959000,25.194958984375,-1.6685951832607389,3.274877410471439,-10.63230821197033
1682096084229088000,25.215087890625,-1.748049828247726,-0.7135048279523849,-11.742754840946198
1682096084249217000,25.235217041015623,-1.4062801716089248,-3.6609038497269153,-9.345012731704115
1682096084269346000,25.255345947265624,-1.8398481142401695,-6.678838881495595,-6.844080297100543
1682096084289474000,25.27547412109375,-1.9428607449471949,-7.914870622992515,-3.037507162722945
1682096084309603000,25.29560302734375,-2.3601031373299657,-9.233875246730447,0.22745324936807154
1682096084329732000,25.315732177734375,-2.1031834088504313,-10.076036265212297,2.1054805798768994
1682096084349861000,25.335861083984376,-2.492131288510561,-10.956689803695678,2.2527041082322596
1682096084369989000,25.355989013671874,-3.5854876664757724,-11.667171484434604,1.5190461345672606
1682096084390118100,25.3761181640625,-3.82557535648942,-11.709175227427481,1.5766624572336674
1682096084410247200,25.3962470703125,-3.8200364270627496,-11.170980204629897,2.249023373892903
1682096084430376000,25.4163759765625,-3.884361891978979,-10.775831716763973,2.437140638172626
1682096084450503700,25.436503662109374,-3.8674317999660968,-10.69698205193281,0.4665437450379133
1682096084470632700,25.4566328125,-2.4480606761157513,-9.272453106927872,-1.5972195075720548
1682096084490761700,25.47676171875,-1.1630853093601763,-3.735688749337196,-3.0913720239013434
