time,seconds_elapsed,z,y,x
1682095881553315600,0.027315673828125,0.7700964837461709,0.1063055347725749,-0.2994650310032069
1682095881573444600,0.047444580078125,2.428763854971528,0.09990940399467944,-0.6068311905197799
1682095881593572600,0.067572509765625,3.318912367030978,-0.5978782148659229,0.8528380414493382
1682095881613702000,0.087701904296875,3.684977968275547,0.4182311111591756,2.1251047332793473
1682095881633829600,0.10782958984375,4.067165267759561,1.5112233319871127,3.089669896158576
1682095881653959000,0.127958984375,2.9246155275583265,2.1355900330670177,3.1514544444203376
1682095881674087000,0.1480869140625,1.2941226959377528,1.2444780828028916,2.2591201127544043
1682095881694215700,0.168215576171875,1.4441998601585626,0.7242837038591504,3.659306351402402
1682095881714344700,0.1883447265625,1.5161954213112592,1.7094997328400612,4.101354537609219
1682095881734472700,0.20847265625,-1.214982523727417,3.123416682937741,5.341714079177379
1682095881754601700,0.228601806640625,-3.9564346100211143,1.4234282902866602,6.3350587618172165
1682095881774729700,0.248729736328125,-0.8156465210437774,0.8848752478316426,3.443755721274018
1682095881794858800,0.268858642578125,3.959189461687207,-0.5419096594065428,3.2249913897961378
1682095881814987800,0.28898779296875,6.03762070659697,0.473426198028028,2.6969103492558
1682095881835115800,0.30911572265625,5.604907919490337,1.17928051122725,3.0556010378181933
1682095881855244500,0.32924462890625,4.009719625484943,3.8785035213395953,3.314540727818012
1682095881875372500,0.34937255859375,1.2456500491917133,7.25131202147007,2.3839023844599723
1682095881895501600,0.36950146484375,0.5551373897701501,5.8919280410707,-0.8917313973367214
1682095881915629600,0.389629638671875,4.332885411679745,6.87489570660293,-1.0461071355342864
1682095881935758600,0.409758544921875,5.496216074103117,8.537499248233438,3.1908523888289926
1682095881955887900,0.429887939453125,6.904346842014789,8.22745480941832,3.1204765378326176
1682095881976016000,0.450015869140625,7.341632343864441,6.1229100490868085,-2.2050457004785535
1682095881996145000,0.470144775390625,4.5935289829879995,2.9035873525768516,-6.877232625117897
1682095882016273000,0.49027294921875,3.3813591785937547,3.322127821946144,-1.9295973587483166
1682095882036401700,0.510401611328125,4.173207183159888,4.866470894855261,1.5165642546236515
1682095882056530700,0.53053076171875,2.9343104076206683,5.0762207297503945,2.115933584830165
1682095882076658700,0.55065869140625,2.4640976186811923,2.6972727528274056,-3.088211514043808
1682095882096787700,0.57078759765625,2.718856223604083,3.4038048191577195,-5.500079179272055
1682095882116915700,0.590915771484375,1.8560452158033847,7.652496866890788,-1.482093829745054
1682095882137044700,0.611044677734375,-2.9375346303641794,10.867886900126933,-0.13716156854629516
1682095882157172700,0.6311728515625,-6.790420603105425,13.092013733172417,-3.8560125803291796
1682095882177301800,0.6513017578125,-8.79531022646427,12.700823627543448,-7.084814468324184
1682095882197430500,0.671430419921875,-8.799299003839492,13.119195170086622,-8.971062514689564
1682095882217558500,0.69155859375,-9.320126712250708,11.252277847135066,-7.656039654064178
1682095882237688000,0.71168798828125,-8.386638240158558,7.862944036400318,-8.366727086508273
1682095882257816000,0.731816162109375,-7.118710892707109,3.824272457197308,-9.165952049583197
1682095882277945000,0.751945068359375,-5.57888500496149,0.1696463725656271,-8.394035364672542
1682095882298074000,0.77207421875,-3.0534254473447797,-2.7769536077857015,-5.398824205887317
1682095882318202000,0.7922021484375,-0.6769722098469734,-4.926217799809574,-2.2485703694283963
1682095882338331000,0.812330810546875,-0.11963409516215323,-6.8296098731994626,-0.06952186451554299
1682095882358459000,0.832458984375,-0.7444272049605846,-7.950895876097679,0.025900749453902243
1682095882378588000,0.852587890625,-1.93563371630311,-10.58305172137022,-1.8803776930272578
1682095882398716000,0.8727158203125,-1.3254361180901526,-12.54110185214281,-2.7513956804201007
1682095882418845200,0.89284521484375,-0.15664251408576965,-12.593929771488904,-1.9670792404025792
1682095882438974200,0.91297412109375,-0.2835457234680652,-12.274856807565689,-1.2654466365516186
1682095882459102200,0.933102294921875,-1.95551447481513,-11.908504206073284,-2.348352639912069
1682095882479231200,0.953231201171875,-2.960027032679319,-11.443187372481823,-4.196560586218536
1682095882499359200,0.973359130859375,-1.2482868274360894,-9.107616764992475,-5.316883589303493
1682095882519488000,0.993488037109375,1.7237457003355026,-1.2850234436810015,-7.3480124002903695
1682095882539617000,1.013616943359375,0.41453941703438757,2.511558458036184,-7.105497775390744
1682095882559745000,1.0337451171875,-2.5915444334208964,2.2168092035084963,-10.023854827076196
1682095882579874000,1.0538740234375,-3.15491890566051,6.484968752777576,-10.77964046139717
1682095882600002000,1.074001953125,-4.3099739071697,10.748597672879695,-11.775078901445864
1682095882620131000,1.094131103515625,-3.637442310118675,12.384676780200003,-11.937788752746581
1682095882640259000,1.114259033203125,-3.267643952086568,10.453985780996083,-7.762868043667077
1682095882660388000,1.13438818359375,-3.975463720139861,8.387168401512502,-4.242640492609143
1682095882680517000,1.15451708984375,-1.7907418457657098,6.967298680490255,2.42057294973135
1682095882700644900,1.174644775390625,1.3236165014475583,5.401839169794321,6.730540427160262
1682095882720774100,1.194774169921875,2.8924270761370656,1.8665373837232588,6.9040224323660135
1682095882740902100,1.214902099609375,3.6289632355868813,-0.2839431983530521,7.842921239069104
1682095882761031200,1.23503125,3.2250346444159743,-0.5665408273160457,10.147954669475554
1682095882781160200,1.25516015625,3.22787717436552,-0.6726905870050192,9.938712199580669
1682095882801288200,1.2752880859375,2.855646620750427,-2.080229818764329,8.761392174771428
1682095882821417200,1.295417236328125,2.9050702846109866,-2.9064228682637214,9.075596655875444
1682095882841545200,1.315545166015625,3.912897666111588,-1.8848913710594175,11.144094535791874
1682095882861674000,1.335674072265625,3.1620845595061775,-0.7283575291693211,11.65865500050187
1682095882881802000,1.355802001953125,1.1146160236150027,-0.8519991064071655,10.497676454162598
1682095882901931000,1.375930908203125,1.672470271128416,2.25990249530375,7.132737079972029
1682095882922060000,1.39606005859375,3.5795594454705713,7.547804320272803,2.766882295626402
1682095882942188000,1.41618798828125,-0.5261340346584096,7.244326400366425,4.932655723902583
1682095882962317000,1.436317138671875,-3.2376082947850224,10.920119776189326,2.6160914301782845
1682095882982445000,1.456445068359375,-4.853725979572534,11.25924885519147,-0.4341133015543222
1682095883002574000,1.476573974609375,-4.169144463765621,10.726071368294953,-4.891874800702929
1682095883022702000,1.4967021484375,-1.9168004210174083,10.046492190819977,-4.665929033288359
1682095883042831000,1.5168310546875,-1.1509224317491054,8.561454124316572,-5.05148025624752
1682095883062960000,1.536960205078125,-0.7862673548895865,5.026533446517586,-6.808581698217988
1682095883083088100,1.557088134765625,0.10521160205602645,0.36393268086910247,-7.694186137107014
1682095883103217200,1.577217041015625,0.9513913546599447,-3.653768591019511,-7.093449610200524
1682095883123345200,1.59734521484375,0.4128093053061515,-5.034914321371913,-5.286403695365786
1682095883143474200,1.61747412109375,-1.3009773841381072,-6.067130294197797,-2.8300667738139627
1682095883163602200,1.637602294921875,-2.23073309944272,-8.471727091640233,-1.3327075703978537
1682095883183731200,1.657731201171875,-1.1699252383828163,-10.509235959053038,-0.8676900120139122
1682095883203860000,1.67785986328125,-0.35833065961096433,-12.133029585295915,-0.5030781167089938
1682095883223988200,1.69798828125,-1.2820038035988808,-12.494229041808843,-0.6737178842261433
1682095883244117200,1.7181171875,-3.450023549497127,-12.19020400941372,-2.1007737173601986
1682095883264245200,1.738245361328125,-3.3753625685274598,-12.736209413701294,-3.4456276526257392
1682095883284374300,1.758374267578125,-0.3806102594256401,-11.784548156058788,-3.4531191774249073
1682095883304503300,1.77850341796875,1.917015525072813,-8.182257823342084,-3.9618963825583458
1682095883324631300,1.79863134765625,1.672714601278305,-0.5417839872002601,-6.255661399975419
1682095883344760000,1.818760009765625,-2.760145096325874,2.428669746947288,-7.2064394450426095
1682095883364888000,1.83888818359375,-5.367255347669125,2.7058295687705276,-9.387744204449653
1682095883385017000,1.85901708984375,-3.5704385659039017,7.030776588666439,-8.91482215655148
1682095883405145000,1.87914501953125,-3.4399311945497986,11.231524981963634,-10.566685108458994
1682095883425274000,1.899274169921875,-4.098170646876096,12.753747408479452,-10.93074404605627
1682095883445403400,1.9194033203125,-3.1146482700705524,10.884601888084411,-8.386529519087075
1682095883465531400,1.939531494140625,-1.8848095379948615,8.31598824839592,-3.433826447933912
1682095883485660400,1.959660400390625,-0.840108762127161,6.177248372995853,2.502623456430435
1682095883505788400,1.979788330078125,0.23232056314349173,4.391556211835145,5.131036023521423
1682095883525917200,1.999917236328125,0.22468320013284682,2.5016028812110425,5.004247964951396
1682095883546045200,2.020045166015625,0.12592121260762215,0.8004086199015379,6.005139409708977
1682095883566174200,2.04017431640625,2.010145059669018,0.39536125383377074,10.842219374907016
1682095883586303200,2.06030322265625,4.845073886561393,-0.23055939868986605,13.306355572032928
1682095883606431200,2.08043115234375,5.850781791689991,-1.5282108532756566,12.427594715428352
1682095883626560300,2.100560302734375,3.351760743665695,-1.7048235577225683,9.181822987931966
1682095883646688300,2.120688232421875,1.5065081400334834,-0.7782160773158073,11.1359486387372
1682095883666817300,2.1408173828125,1.9571219100117683,0.8716729441702366,14.835876338863372
1682095883686945300,2.1609453125,2.9730747303009033,0.7194932547122239,12.723362791609762
1682095883707074000,2.181073974609375,4.201204320371151,2.730520357912779,6.331544616216421
1682095883727203000,2.201203125,6.050970602035522,9.924830973744392,1.8590426440536976
1682095883747331000,2.2213310546875,-0.13684943385720252,10.060748679709434,5.621704740512371
1682095883767460400,2.24146044921875,-5.5476107457757,14.251948323416709,2.564222711253166
1682095883787588400,2.26158837890625,-6.983200013977289,11.936315757584572,-1.1403513533741234
1682095883807717400,2.28171728515625,-3.6508991730630393,10.49856726552248,-6.042203942734003
1682095883827846400,2.301846435546875,-0.8790180462360382,9.282947612935304,-4.9222483116567135
1682095883847974400,2.321974365234375,0.006474164450168609,8.387239128661156,-6.14152005701065
1682095883868103200,2.342103271484375,-0.28862295366711915,5.508610860773921,-8.484524613893031
1682095883888231200,2.362231201171875,-0.891370162808895,1.2560358341276645,-9.727215813279152
1682095883908360200,2.382360107421875,-1.4356149871647357,-2.769306892424822,-8.177779216623305
1682095883928488200,2.40248828125,-2.257970650458336,-4.9894496242702004,-5.470847239568829
1682095883948617200,2.4226171875,-3.195471280801296,-6.99114249741435,-3.479319786608219
1682095883968746200,2.442746337890625,-3.223668616759777,-9.327951706787942,-3.525892737212777
1682095883988874200,2.462874267578125,-3.0323569403529165,-11.487439186662435,-2.865941804793477
1682095884009003300,2.483003173828125,-3.0759084973096846,-12.593781302928925,-1.7079586408779024
1682095884029131300,2.50313134765625,-2.8784008888721466,-13.28201257341504,-1.3928271080568433
1682095884049260000,2.523260009765625,-2.8063632421433926,-13.518542863208054,-2.0212235030442476
1682095884069388000,2.543387939453125,-3.5355285805642604,-14.013194512355327,-2.855014752587676
1682095884089517300,2.563517333984375,-4.323068951064348,-13.603505457961559,-3.2560160581350326
1682095884109646300,2.583646240234375,-4.257610682725906,-12.238623464667796,-3.803571029952168
1682095884129774300,2.6037744140625,-2.381819148445129,-7.659537433052063,-6.095839086809754
1682095884149903400,2.6239033203125,-1.5452185405693948,-0.40422143663764,-9.416962700149416
1682095884170031400,2.64403125,-5.390104308336973,1.8712895466864108,-9.825892460608483
1682095884190160400,2.664160400390625,-6.965451591318845,5.98288315423727,-13.075862224316596
1682095884210289200,2.6842890625,-2.810375400394201,9.151190533781051,-15.084908382833003
1682095884230417000,2.7044169921875,-0.18779515618588774,12.904064226675033,-12.954576270294188
1682095884250545700,2.724545654296875,-1.7032336581826208,13.920253193807602,-8.502018185007572
1682095884270673700,2.744673583984375,-1.6695044070601461,12.34205227496028,-6.255561446732282
1682095884290802700,2.764802734375,-1.3196107729375361,10.100549944221973,-3.2607156141281126
1682095884310931700,2.784931640625,0.4062158253252506,8.901577475053072,2.4597049366801977
1682095884331059700,2.805059814453125,0.9921499198973178,6.740992847591638,6.582420826748013
1682095884351188700,2.825188720703125,0.3360381272494793,4.3411055430144065,6.831030261391401
1682095884371316700,2.845316650390625,0.4934001877814531,3.106326431927085,7.4613675613135095
1682095884391445800,2.86544580078125,1.6883020465105771,2.8313316791832444,10.685032086420058
1682095884411573800,2.88557373046875,2.8606758470892903,2.672318344312906,12.621284226882457
1682095884431702500,2.90570263671875,3.4402520970672366,2.8384137463986874,12.3938981975317
1682095884451831800,2.925831787109375,2.9922166531443595,2.8828602063685653,12.041174308419228
1682095884471959600,2.94595947265625,2.995795096153021,3.190189541006088,14.111825566977261
1682095884492088800,2.9660888671875,2.9783669914901254,3.379905180393159,16.18097343523502
1682095884512216800,2.986216796875,2.562941439270973,3.0529280192166564,14.486213006365299
1682095884532345900,3.006345947265625,2.7198750452578064,4.705797517818212,8.964125993424654
1682095884552474600,3.026474609375,3.601089724755287,8.230946158665418,2.661757202810049
1682095884572602600,3.0466025390625,1.6524116718314588,8.083846548950671,1.7594103034347295
1682095884592731600,3.066731689453125,-1.132731087628752,10.782409926110505,-0.43121524202525613
1682095884612859600,3.086859619140625,-3.431210127955675,11.599203279101848,-4.3930917508393525
1682095884632988700,3.10698876953125,-4.420816208589077,10.468349821913241,-11.073324132519959
1682095884653116700,3.12711669921875,-3.8894869799077507,8.730529418995976,-10.342554866033792
1682095884673245700,3.14724560546875,-3.2759529307484625,7.108108250150084,-6.881898278841376
1682095884693374700,3.167374755859375,-1.8642472269594668,4.872749828994274,-6.196417768368125
1682095884713502700,3.187502685546875,-0.9693968208193778,1.6996715817868708,-8.207957497265934
1682095884733631500,3.207631591796875,-1.3094050207436083,-3.0102701962292193,-8.429815703105927
1682095884753759700,3.227759765625,-1.8220343712605536,-6.230135913574696,-6.55797670584321
1682095884773888500,3.247888427734375,-2.211529217278957,-7.063865203797817,-3.2428993869304654
1682095884794016500,3.2680166015625,-2.113908070351928,-8.232614384138584,-0.6287555836886167
1682095884814145800,3.288145751953125,-0.17220036789737642,-10.562283658629655,-0.5813888523578643
1682095884834274800,3.30827490234375,-0.023066402810811994,-12.103090374106168,-0.9305454043775796
1682095884854402800,3.32840283203125,-2.8179800301790237,-12.850744139897822,-1.3614052570939064
1682095884874531800,3.34853173828125,-5.05534160785079,-12.960498646080493,-2.6252871285468338
1682095884894659800,3.368659912109375,-4.54714658651948,-13.742345773375034,-3.4026948120892047
1682095884914788600,3.38878857421875,-1.6182418373346328,-13.440861073112487,-3.2124399512588977
1682095884934916600,3.40891650390625,-0.7807517332732677,-11.158102018356322,-2.688366977316141
1682095884955045600,3.429045654296875,-2.1990343312345444,-4.964748313733935,-6.733861680537462
1682095884975174700,3.449174560546875,-5.165606986165046,-0.24066285955309866,-10.115555790174007
1682095884995302700,3.469302734375,-3.8582302563786506,-0.18022680329084395,-10.586395186579226
1682095885015431700,3.489431640625,0.833658051617816,4.096050585982203,-11.41161851426363
1682095885035559700,3.5095595703125,1.0002571654420345,8.471233170643448,-14.569660520380735
1682095885055688700,3.529688720703125,-1.4466156891286372,11.478674865448474,-17.37170999097824
1682095885075817700,3.549817626953125,-4.539017056077719,11.44556053135395,-13.059334283363818
1682095885095945500,3.569945556640625,-4.668796113157272,11.315853954988718,-6.652496233493089
1682095885116074800,3.59007470703125,-3.526927925479412,10.555733506333828,-0.8719757265090942
1682095885136202800,3.61020263671875,-2.8506664942502975,8.021362327986955,3.839594529491663
1682095885156331800,3.630331787109375,-2.2781483460903167,5.990009645116329,6.05968523888886
1682095885176459800,3.650459716796875,-0.2921352726370096,5.71562688679099,7.633105353200436
1682095885196588800,3.6705888671875,2.5988480344325304,5.5613499327927824,11.746930665326119
1682095885216717800,3.6907177734375,5.3521337663829325,3.8712817533925175,13.71587160794735
1682095885236845800,3.710845703125,5.29182396684885,1.697160768009722,12.662054628688097
1682095885256974600,3.730974609375,3.7125522038996217,1.743465423066914,9.293129399731754
1682095885277102600,3.7511025390625,4.742811197438836,2.876502946296334,11.239220797163247
1682095885297231600,3.771231689453125,5.4812131507605315,3.4315114489898084,13.388742763340472
1682095885317359600,3.791359619140625,4.248628919368982,2.1591274143904444,11.576779850369691
1682095885337488600,3.811488525390625,2.598393276402354,2.8086104365482925,8.527484050175547
1682095885357617700,3.83161767578125,5.117512525081634,7.238883917051553,7.849153411456942
1682095885377745700,3.85174560546875,7.477551218873262,11.163344010663032,5.565750213578343
1682095885397874700,3.871874755859375,4.401304867911339,9.87283658261299,1.6465747823715209
1682095885418002700,3.892002685546875,-2.0867444613553583,12.414073555076122,-2.5954239052027464
1682095885438131700,3.912131591796875,-6.233138018000125,12.300644744294882,-5.315093198755383
1682095885458259700,3.932259765625,-5.119727863043546,11.289943268662691,-7.757842324459553
1682095885478388700,3.952388671875,-2.8329601571679115,8.603905026555061,-8.322910156613588
1682095885498516700,3.972516845703125,-1.9577556778706608,6.327765682199597,-8.472577570989728
1682095885518645800,3.992645751953125,-0.5869606611408293,3.6382904513806102,-9.286528978553413
1682095885538774800,4.01277490234375,0.04344371266812086,0.6031114393442869,-9.770316119337082
1682095885558902800,4.03290283203125,-1.216225363395363,-2.633448223170638,-8.69268045759499
1682095885579031800,4.05303173828125,-2.33215714578405,-5.477293346968293,-6.678166681322455
1682095885599159800,4.073159912109375,-2.414652912032604,-7.299253922340274,-3.8347652096390723
1682095885619288600,4.09328857421875,-2.60878899821043,-8.618065069332719,-1.473694250190258
1682095885639416600,4.11341650390625,-4.4358267307162285,-10.34998063212037,0.2133259398162365
1682095885659545600,4.133545654296875,-6.38805502346754,-12.077529231870173,0.3415402317970991
1682095885679674600,4.153674560546875,-4.970809221208095,-13.844566961443423,-0.34468671312928195
1682095885699802600,4.173802734375,-2.317215304978937,-13.95134508216381,-0.551290066692233
1682095885719931600,4.193931640625,-1.8045291097082197,-13.732004412102699,0.5084259074777364
1682095885740059600,4.2140595703125,-2.660012989491224,-13.596315838718413,0.7605629317253828
1682095885760189000,4.23418896484375,-3.741475808306038,-12.588483196520805,-1.358337686216831
1682095885780316700,4.254316650390625,-3.699358375805616,-9.153417562180756,-4.709528521040082
1682095885800445700,4.27444580078125,-3.795260882246494,-1.2478314848840235,-8.032679840815067
1682095885820574700,4.29457470703125,-4.431855488997698,1.686336299395561,-8.63589123340249
1682095885840702700,4.31470263671875,-3.210617412006855,2.308901796272397,-12.171125214934348
1682095885860831700,4.334831787109375,-1.2502023056685925,7.096107431232928,-15.18090558182001
1682095885880959700,4.354959716796875,-1.2691361387193203,10.981669931173323,-15.841277369999885
1682095885901088800,4.3750888671875,-1.9087948092162608,11.07142209829092,-12.643690119957924
1682095885921216800,4.395216796875,-1.783977173936367,9.686254272815585,-8.673344473484159
1682095885941345800,4.415345703125,-1.0259282708585262,8.980213789394497,-4.163763939771056
1682095885961474600,4.435474609375,-0.5406324790775776,7.82358876208961,0.8281132039070129
1682095885981602600,4.4556025390625,-0.47218967850301413,7.11585608779788,4.010392994701862
1682095886001731600,4.475731689453125,-0.3607493746578693,5.739684638726711,6.8672408079355955
1682095886021859600,4.495859619140625,1.3197457974940539,5.361321281445026,10.737049858427048
1682095886041988600,4.515988525390625,2.7934932391762732,4.800827040816843,13.255125735533237
1682095886062116600,4.53611669921875,3.3838363823622464,4.044177483142912,13.95679282617569
1682095886082245600,4.55624560546875,3.4523043539106846,3.737156776063144,13.272189098536968
1682095886102375000,4.576375,3.6577743195295334,3.43378407009691,13.263117318809032
1682095886122503000,4.5965029296875,4.222807080370187,4.109573792161047,14.47119780806303
1682095886142631700,4.616631591796875,2.436391281110048,3.3941996632054448,14.488437696677446
1682095886162759700,4.636759765625,1.5180489402234554,3.7301807995706793,11.793207263332604
1682095886182888700,4.656888671875,2.092900499767065,8.75909500374496,7.255036594951152
1682095886203016700,4.6770166015625,3.614586627449095,12.123339381408691,4.144257275268435
1682095886223146000,4.69714599609375,0.8899673102736473,9.911136794912814,-0.4745487723171711
1682095886243275000,4.71727490234375,-2.806675376832485,12.170091780233383,-4.647102752265334
1682095886263403000,4.737403076171875,-5.6555017961740495,12.12882453482151,-7.489551453268527
1682095886283532000,4.757531982421875,-6.010180326485633,12.087854226529597,-9.574497779160737
1682095886303660000,4.777659912109375,-4.9970940015435215,8.915311985895038,-8.637501006686687
1682095886323788800,4.797788818359375,-2.3314592266477643,5.763028689435124,-8.467609134927391
1682095886343916800,4.817916748046875,0.6209728208579123,2.2854981243312356,-9.300252968001365
1682095886364045800,4.8380458984375,1.646406440067291,-1.4961001432657242,-9.777698046281934
1682095886384174800,4.8581748046875,0.2601473122239113,-4.628270041501522,-9.31348771262765
1682095886404302800,4.878302734375,-1.7994013914309441,-6.8153603985726825,-6.798018218627572
1682095886424431900,4.898431884765625,-2.100783361971378,-9.371482805478573,-3.4939831027328965
1682095886444560000,4.918559814453125,-0.41538120162077247,-11.514739866042136,-0.8811345999985932
1682095886464689000,4.93868896484375,0.5147988765757531,-12.805947551316022,0.26936346885859963
1682095886484817000,4.95881689453125,-1.1727520593065768,-13.033642208224535,-0.3506459137946367
1682095886504945700,4.978945556640625,-3.030343846964836,-13.324709559369087,-1.3968904119729995
1682095886525075000,4.999074951171875,-2.092943754386902,-14.265743040013312,-3.195498168808222
1682095886545203000,5.019202880859375,-0.4632593165397644,-14.721622183173894,-3.4960067175149914
1682095886565332000,5.03933203125,-0.26918394757322966,-13.26776309878826,-1.958023242765665
1682095886585460000,5.0594599609375,-0.7678992659628391,-9.952855291223525,-2.825138669762015
1682095886605589000,5.079589111328125,-1.7259458407282828,-3.7210318629533052,-6.836298557183146
1682095886625717000,5.099717041015625,-2.8536861343324182,-0.33345863215029237,-8.55267226744592
1682095886645846000,5.119845947265625,-0.7137503271460532,1.901058077484369,-10.83497597965002
1682095886665974800,5.139974853515625,-0.12882628639936447,5.596787741398811,-13.745308130311965
1682095886686102800,5.160102783203125,-3.4558547398686406,9.057413933452963,-16.28521473095417
1682095886706231800,5.180231689453125,-5.654704508316517,12.889715383327006,-15.234174230670929
1682095886726359800,5.20035986328125,-4.68146387155056,12.49968146199584,-10.39410735861659
1682095886746488800,5.22048876953125,-1.9581810636758803,10.971721368610858,-5.319868158072233
1682095886766616800,5.240616943359375,0.012401216411590575,9.405850354504585,0.5759376012146472
1682095886786745900,5.260745849609375,0.4917734268298372,7.315728671801089,4.9845074916929
1682095886806875000,5.280875,-0.6211001004993916,5.683962751504779,6.134491181287169
1682095886827003000,5.3010029296875,0.1640670928622596,5.6052551254928105,8.869671932226419
1682095886847132000,5.3211318359375,1.191415770179033,4.929474755778909,12.50087271760702
1682095886867260000,5.341260009765625,2.351599366748333,3.656829439894855,13.371791628539562
1682095886887389000,5.361388916015625,1.4022516467452049,3.3585932200342414,10.807720892977715
1682095886907517000,5.381516845703125,2.1247651260614395,3.6907600588083267,12.47916357462406
1682095886927646000,5.40164599609375,2.6831238159656525,4.6698260407269,15.40330680849552
1682095886947775000,5.42177490234375,2.64819629496932,4.000506099198758,15.443244851130245
1682095886967903000,5.441903076171875,2.3587632670283316,3.7955329771861432,11.734930430930852
1682095886988031700,5.46203173828125,3.0735622264444826,6.0762032429695125,7.014158631342649
1682095887008160000,5.482159912109375,3.211053465336561,9.271201645562051,3.594508008277416
1682095887028288800,5.502288818359375,0.8526093472599983,8.16425162653029,1.3928846834629773
1682095887048416800,5.522416748046875,-0.8722364963371306,10.768148761045932,-0.9322375952482223
1682095887068545800,5.5425458984375,-2.305721412670612,11.299746869796515,-3.52825537469089
1682095887088674800,5.5626748046875,-2.6328841595470904,10.809504853785038,-7.929015468201041
1682095887108802800,5.582802734375,-3.016121260344982,8.368230476808547,-9.123394764360786
1682095887128931800,5.602931884765625,-2.832169883573055,5.615580120152234,-9.847414556586742
1682095887149059800,5.623059814453125,-1.2964052539169788,2.785954660364985,-11.214086355906725
1682095887169188900,5.64318896484375,-0.07443082547560334,-0.3698831137061119,-11.034950270462035
1682095887189318000,5.66331787109375,0.037221184891462325,-3.311345731168985,-8.878708640640973
1682095887209446000,5.68344580078125,-0.6477065870698541,-5.672274067276716,-6.410660823029279
1682095887229574400,5.703574462890625,-1.5772539933860301,-7.989004365217685,-3.6260973247617483
1682095887249702100,5.7237021484375,-2.1291303355336186,-9.947073200690745,-0.40166590693593024
1682095887269831400,5.74383154296875,-3.215875770926475,-11.239862602198123,1.852124242967367
1682095887289959400,5.76395947265625,-4.984149179774523,-12.36075580638647,0.6128413907200098
1682095887310088400,5.78408837890625,-3.83790292314291,-14.619715467882155,-1.2847194922983645
1682095887330217500,5.804217529296875,-0.28729594284705817,-15.02094298340082,-1.611920817619562
1682095887350345500,5.824345458984375,0.7908850778181106,-13.920809658646583,0.8084925576359033
1682095887370474200,5.84447412109375,-1.7910487197577953,-12.815381734615563,0.8938309999644756
1682095887390602200,5.864602294921875,-3.999801458060741,-11.872568969339131,-2.0412252575874326
1682095887410731300,5.884731201171875,-2.2436685688614846,-7.0924220207184545,-4.7290761020749805
1682095887430859300,5.904859375,-2.653615981930494,-1.448337690615654,-5.251961912059784
1682095887450988300,5.92498828125,-6.473954022288322,2.1085808839797973,-7.529535673132538
1682095887471116300,5.9451162109375,-6.168160226655006,3.241581874591112,-12.623540481376647
1682095887491245300,5.965245361328125,1.141993275362253,6.078275957590341,-14.546068047869205
1682095887511374300,5.985374267578125,4.681778344327211,8.928872309213876,-12.785539554059504
1682095887531502300,6.00550244140625,5.1745443258583546,10.260077658355236,-11.841466559588909
1682095887551631000,6.025631103515625,2.0593851836562154,9.451394546583295,-12.446214075702429
1682095887571759000,6.045759033203125,-1.999399355379492,9.129979403448104,-8.807533163699507
1682095887591888400,6.065888427734375,-3.3898376686036586,10.005306778472661,0.5887859768718481
1682095887612016400,6.086016357421875,-3.1669547958910464,8.56019038799107,8.51076672413051
1682095887632145400,6.1061455078125,-2.3804151268661022,6.368812562859058,10.260959117364882
1682095887652274400,6.1262744140625,-1.1494470984995364,5.409082565051317,8.618148071441054
1682095887672402400,6.14640234375,1.8205378490924835,5.690220058333874,11.540654059499502
1682095887692531500,6.166531494140625,3.4765105744063853,4.407719118867814,14.17479377206564
1682095887712659500,6.186659423828125,4.4016976666212075,3.381984909276664,13.88976102491021
1682095887732788200,6.206788330078125,4.200238690209389,2.917993771331012,11.523017865043878
1682095887752917200,6.226917236328125,2.5522405970364805,3.235724380734563,8.623688169911503
1682095887773045200,6.247045166015625,1.6096937892198562,2.426035014529526,8.17454505700767
1682095887793174300,6.26717431640625,2.2150690818428993,2.514108727040887,8.541163615959881
1682095887813302300,6.28730224609375,4.413361216408014,5.7181976140618325,6.757326142755151
1682095887833431300,6.307431396484375,5.276816951853037,8.895721150240302,3.620596973779797
1682095887853559300,6.327559326171875,-0.09408457029871642,8.110826910334826,0.9362596903711556
1682095887873688300,6.347688232421875,-4.276284988057613,9.243153362685442,-1.0277700993329286
1682095887893817300,6.3678173828125,-2.7482605972647667,7.79842977091372,-5.03088988816142
1682095887913945300,6.3879453125,1.289864453971386,7.24696551669836,-9.530299156472086
1682095887934074400,6.408074462890625,1.868894175982475,5.951307866278291,-8.651237271094322
1682095887954202400,6.428202392578125,-1.6338485717892646,5.458958648854494,-7.3514341914325945
1682095887974331400,6.448331298828125,-2.9474972214519974,3.2070541665673256,-6.862295168226957
1682095887994459400,6.46845947265625,-2.006808754853159,0.07590192094147205,-7.636299180805683
1682095888014588400,6.48858837890625,0.3771720286052674,-5.412921120300889,-9.322873965132237
1682095888034717400,6.508717529296875,0.5748446183461695,-8.978685849174857,-6.47227819803059
1682095888054845400,6.528845458984375,-1.5753355925440788,-9.131614895695447,-1.9455168124139308
1682095888074974200,6.54897412109375,-3.54658890376091,-9.795650467079877,0.5993401041120291
1682095888095102200,6.569102294921875,-4.188882598936558,-11.402086131286621,1.0744500174432992
1682095888115231200,6.589231201171875,-3.513193999159336,-11.952621580219269,0.8745435311704873
1682095888135359200,6.609359130859375,-3.4315210936009883,-11.489373954117298,0.9260299727797507
1682095888155488300,6.62948828125,-4.6203205438017845,-10.869315471625328,1.3754168313115835
1682095888175617300,6.6496171875,-5.8781882695317265,-10.652882213443517,1.634122128033638
1682095888195745300,6.669745361328125,-5.234418072062731,-10.283944856154918,1.2633148852199316
1682095888215874600,6.68987451171875,-2.212496016484499,-8.36593389030397,-0.8109966494113207
1682095888236002800,6.7100029296875,-0.28031335395071655,-3.1968115894943474,-3.698842242977023
1682095888256131800,6.7301318359375,-3.2020319544911384,2.302301375094056,-4.657643435502052
1682095888276259800,6.750259765625,-5.128742359626293,3.0273230378389355,-9.485112691789865
1682095888296388900,6.770388916015625,-1.67113873026371,3.1305659701704975,-13.270866910022496
1682095888316518100,6.79051806640625,1.4871183799088001,7.907782710558176,-13.557360961902141
1682095888336646000,6.81064599609375,0.5888987530639395,13.17041214710474,-13.282715168726444
1682095888356775200,6.830775146484375,-2.5639082384765146,11.564349407863617,-9.849544554352759
1682095888376903200,6.850903076171875,-2.7858757499098776,9.15305749669671,-5.968749999466538
1682095888397032000,6.871031982421875,-2.077321822363138,8.030167565733194,-0.6212579214096069
1682095888417160000,6.891159912109375,-1.7110241659283636,5.904660096871853,4.078481027022004
1682095888437289000,6.9112890625,-1.541127033472061,3.2917999036997556,6.711513070607185
1682095888457418000,6.93141796875,-0.366744267691113,2.059775936539471,7.438645441895723
1682095888477546000,6.9515458984375,1.6774094810962676,1.4438041388392449,7.7156947890818115
1682095888497675000,6.971675048828125,2.7878432505905626,0.8111573929309844,7.961703685837984
1682095888517803000,6.991802978515625,3.4056969165146347,0.2846533924490213,8.867824258533119
1682095888537932000,7.01193212890625,3.268876708751917,1.6022089864224194,9.91489410161972
1682095888558060000,7.03206005859375,2.695368380510807,3.498903315739333,11.330740558475256
1682095888578188800,7.052188720703125,2.1089514708578587,4.08074546482265,14.93468859527111
1682095888598317800,7.07231787109375,0.41038799644336105,3.2758889256015418,13.206477147698402
1682095888618445800,7.09244580078125,0.8861410299837589,5.127333661872148,6.139215871721506
1682095888638574800,7.112574951171875,2.0588756266988812,9.966448932290076,2.405766425743699
1682095888658702800,7.132702880859375,2.991683569180965,9.174344614875316,8.06922531840205
1682095888678832000,7.15283203125,2.374131516551971,10.452653071087598,3.499733629083633
1682095888698961000,7.1729609375,-0.44559382292442024,10.025670352065562,-2.727286198297143
1682095888719089200,7.193089111328125,-0.6599380729377269,9.709210200989245,-6.245163971358537
1682095888739218000,7.213218017578125,1.0604279218316077,11.467335140788554,-4.853235565707087
1682095888759346000,7.233345947265625,-1.2658476185679435,9.477750054067373,-5.256930348122119
1682095888779475000,7.253474853515625,-2.764887906938791,6.679234602814913,-8.23683521670401
1682095888799603000,7.27360302734375,-3.6928409567356106,3.6320834134340285,-10.949977154314517
1682095888819732000,7.29373193359375,-4.792826981973648,-1.641833725324273,-12.167229961061476
1682095888839861000,7.313861083984375,-4.469266058981418,-4.893467038330435,-8.22131966766417
1682095888859989000,7.333989013671875,-2.596643802386522,-5.918099424159527,-4.083238450682163
1682095888880118000,7.354117919921875,-1.4070963102973997,-7.577030414757132,-0.7071060668259859
1682095888900246000,7.37424609375,-2.3698035703502596,-9.824342308557034,1.0107476528614758
1682095888920374800,7.394374755859375,-4.024648314547538,-11.413044747674464,-0.06405658484697342
1682095888940502800,7.414502685546875,-4.33733245421648,-12.744789025998115,-2.3839076451569796
1682095888960631800,7.4346318359375,-3.0152959154367447,-13.249714231878519,-3.3911633642494676
1682095888980761000,7.454760986328125,-2.1569478783942757,-12.247224119752644,-0.8695990605056285
1682095889000889000,7.47488916015625,-3.3223896877527235,-11.752281378704309,1.1620932295829056
1682095889021018000,7.49501806640625,-5.192601376074553,-11.716378875195979,0.44261166530847545
1682095889041146000,7.51514599609375,-5.394061521530151,-8.955006867423654,-3.4487118823766707
1682095889061275000,7.53527490234375,-5.338040943622588,-1.0686457150787114,-7.486794263514876
1682095889081403100,7.555403076171875,-7.386098093056678,2.955197128304839,-7.560749142041802
1682095889101532000,7.575531982421875,-6.644091977763176,2.2490584452062845,-11.489531775027514
1682095889121661000,7.595660888671875,-2.170486428272724,5.18868858654499,-15.474017590534686
1682095889141789000,7.615788818359375,-0.6464110673666,9.097970400246977,-15.426751981490849
1682095889161918000,7.63591796875,-1.5111667794942856,12.257408829158544,-12.758694801753759
1682095889182046000,7.6560458984375,-3.6913153546035287,12.147406485694646,-8.430543432858586
1682095889202175000,7.676175048828125,-3.597393208324909,9.5690646481961,-4.186656155058741
1682095889222303700,7.6963037109375,-1.2831915520787238,8.075027867200971,0.954728243997693
1682095889242431700,7.716431640625,-0.3905950623452663,6.124336282497644,5.517542939770221
1682095889262560500,7.736560546875,-0.7915431764006614,3.465097199988365,7.168247369292378
1682095889282688500,7.7566884765625,0.11060089387893676,1.037601757517457,9.427273081761598
1682095889302817800,7.77681787109375,3.2364316522210834,1.5452011510431765,12.773244720631837
1682095889322945500,7.796945556640625,6.380959512248635,1.0238140551835297,14.20269066377282
1682095889343074800,7.81707470703125,8.351231995734572,-0.11426526160538196,12.42604923955202
1682095889363203800,7.837203857421875,8.531723587441444,-1.162130054461956,10.575433063060045
1682095889383331800,7.857331787109375,7.2091644860923285,-0.4849228668153286,11.717616892558336
1682095889403460900,7.8774609375,5.103582199406624,0.3344119873523712,12.036590487760305
1682095889423588900,7.8975888671875,2.7163936328828333,0.8011275818258523,9.794793557989596
1682095889443717600,7.917717529296875,3.229278273335099,3.616124796801805,6.898592224010825
1682095889463845600,7.937845703125,6.808848824721575,7.210729835712909,5.6362260178178545
1682095889483974700,7.957974609375,5.504854723110794,8.748156845623255,6.634256812447309
1682095889504103700,7.978103759765625,0.4189128098130226,13.210070788276195,4.133614300701022
1682095889524231700,7.998231689453125,-5.148761065304279,14.85782981199622,1.517588921496272
1682095889544360700,8.018360595703125,-8.514194945013523,14.433489131915568,-3.644514440461993
1682095889564488700,8.03848876953125,-6.400631596446037,11.953826864355802,-6.5912821785956615
1682095889584617700,8.05861767578125,-2.54836229429841,10.310084675061702,-7.793972791504859
1682095889604745700,8.078745849609374,0.30978505722656846,7.622852839255333,-7.7740049392312764
1682095889624874500,8.09887451171875,0.9003506109915673,4.219373014268279,-7.60585026652813
1682095889645003800,8.119003662109375,-0.4875029464364051,-0.21843933730721474,-7.7983426771521565
1682095889665131800,8.1391318359375,-1.2544634702444075,-4.346979403483868,-9.109905752712487
1682095889685260800,8.1592607421875,-1.5344003555655479,-7.645558592060208,-7.2722320599019525
1682095889705388800,8.179388916015625,-1.2544516336761413,-8.434758420205116,-4.225453503225744
1682095889725517800,8.199517822265625,-1.9493175198711454,-9.304563232415914,-3.396565515553951
1682095889745646600,8.219646484375,-3.475256190431118,-10.7837987501204,-5.560607005470991
1682095889765774800,8.23977490234375,-3.564151448458433,-14.00222420552969,-8.127555926817655
1682095889785903600,8.259903564453126,-2.4802163943111895,-13.802095600938797,-8.327416235861183
1682095889806031600,8.280031494140625,-1.7485305975019931,-12.374859150540829,-6.095126554626226
1682095889826160600,8.30016064453125,-1.635785677331686,-12.297600554293393,-5.152656319177151
1682095889846288600,8.32028857421875,-0.5687655176281928,-11.20723108318448,-5.5941737595081324
1682095889866417700,8.340417724609376,0.41558220408558844,-5.948702067694067,-8.85486131658554
1682095889886546700,8.360546630859375,-0.9298480697631836,2.6559318576574324,-11.055604935956001
1682095889906674700,8.3806748046875,-4.11006332924366,3.9427299097955224,-8.636279940459131
1682095889926803700,8.4008037109375,-3.973998323762417,6.444837817919254,-9.36205096026659
1682095889946931700,8.420931640625,-3.1530829224050043,10.817060383731127,-10.182743074262142
1682095889967060700,8.441060791015625,-4.1958395784676075,15.410290676033496,-10.439864901185036
1682095889987188700,8.461188720703126,-6.285584829074144,16.48051635378003,-4.9665878041207785
1682095890007317800,8.48131787109375,-5.8467561894357205,13.07369247906208,0.9893950682312249
1682095890027446800,8.50144677734375,-2.6081214742124077,10.24611927562952,5.408651187896728
1682095890047574800,8.52157470703125,-0.5041864432770758,7.138808508840203,7.481424260914325
1682095890067703800,8.541703857421876,0.4141688301563263,3.1792426150560376,5.499262602192164
1682095890087831800,8.561831787109375,-0.09063822923712432,-1.358368081355095,4.899162619623541
1682095890107960600,8.581960693359376,0.625202275121212,-2.161618646684289,7.976428376761079
1682095890128089600,8.602089599609375,2.3868822770535942,-1.1704770270466804,11.04747540551424
1682095890148217600,8.622217529296876,3.606925591301918,-1.9114491231173276,11.520834091264009
1682095890168346600,8.6423466796875,2.839907784348726,-3.9484482874423263,10.571520273530483
1682095890188474600,8.662474609375,2.177653835684061,-3.43774742076993,11.865361814439296
1682095890208603600,8.682603759765625,1.5558043781220912,-0.6408586939364671,14.671943667769431
1682095890228732000,8.70273193359375,0.13713117340803146,0.6629056905716657,15.09752119616866
1682095890248861000,8.72286083984375,-1.23013917632699,2.0034797565609215,10.289072282171249
1682095890268990000,8.742989990234374,-0.49395146498866377,6.218263689473271,5.411158202281594
1682095890289118000,8.763117919921875,-0.5518915397167206,7.6011857818484305,7.716952095666527
1682095890309247000,8.7832470703125,-1.9065163428902625,9.525919333952665,5.8298120688974855
1682095890329375000,8.803375,-2.8758734162211415,10.497665932768582,2.5738591391265393
1682095890349504000,8.82350390625,-3.4491771618008613,10.716012915617227,-1.5810715058475733
1682095890369633000,8.843633056640625,-2.237732456810772,10.431452462148666,-3.5461060886800286
1682095890389761000,8.863760986328124,-1.828095717126131,10.408672475063801,-4.247902650921047
1682095890409890000,8.88389013671875,-1.3025273900590837,8.793231666624546,-6.613600977909565
1682095890430018000,8.90401806640625,-0.47317967592105264,5.130293680721521,-9.975061277812719
1682095890450146800,8.924146728515625,-0.4846504796147346,0.657808075171709,-11.213995170491932
1682095890470274800,8.94427490234375,-1.679631833320856,-2.7244629575699566,-10.327595781832933
1682095890490403800,8.96440380859375,-2.9702351229608057,-5.121047128948569,-8.84758986427784
1682095890510532900,8.984532958984374,-3.2601965586900707,-7.2106047480285165,-6.7378481198251245
1682095890530660900,9.004660888671875,-2.2955251589573917,-9.119240567290783,-5.125967049694061
1682095890550790100,9.0247900390625,-1.851019350465387,-11.378651479685306,-3.970523633389175
1682095890570918000,9.04491796875,-2.4566356122374535,-12.387677715581654,-3.897472717964649
1682095890591047200,9.065047119140624,-3.825645499116182,-12.392363243049383,-4.927652216526866
1682095890611175200,9.085175048828125,-5.009904383277893,-12.299349443787335,-6.216221954512596
1682095890631304000,9.105303955078124,-4.294144469875097,-12.05769406606555,-6.053709671610593
1682095890651433000,9.125432861328125,-2.912749733197689,-10.627443820804357,-5.576253487414121
1682095890671561000,9.14556103515625,-0.9800760357439517,-6.270667245927453,-7.5161682420372955
1682095890691690000,9.16568994140625,-0.021604002108052373,0.23545652308166026,-10.351768100059031
1682095890711818000,9.18581787109375,-1.5550971066355703,2.5927970638304947,-11.486095955359936
1682095890731947000,9.205947021484375,-1.1300887564264237,5.953690962022542,-12.857229994785785
1682095890752075000,9.226074951171874,0.38309791152290995,12.771265529513359,-12.7818558971107
1682095890772204000,9.2462041015625,-1.3567057011008261,15.802333014577627,-11.425703153717517
1682095890792332800,9.266332763671874,-0.7907784756384789,14.899451277673244,-8.062840585801005
1682095890812460800,9.286460693359375,-1.1700034181855619,12.871458426624535,-3.1096874327927826
1682095890832589800,9.30658984375,-2.105630363611132,11.831265483570098,3.309772782763839
1682095890852717800,9.3267177734375,-1.6289222213029861,9.26271847937703,7.652954547530412
1682095890872846800,9.346846923828124,-1.8799755419671533,5.5334898659646505,8.320594280886649
1682095890892976000,9.36697607421875,-2.720336817550659,2.060898510828614,6.553435555282235
1682095890913104100,9.387104248046874,-1.797096329358965,-0.6973468893557786,7.719491258755326
1682095890933233000,9.40723291015625,1.5297440541923044,-0.22806465926468372,11.398488983577488
1682095890953361200,9.427361083984374,3.6514229046761986,-0.32287644785940645,13.091141626513004
1682095890973490000,9.447489990234375,4.115038779568672,-0.7534837871193886,10.993552092146873
1682095890993618000,9.467617919921874,1.410657071518898,-2.131148105096817,9.034625178539752
1682095891013747000,9.487746826171875,-0.026605098330974578,-2.096462576162815,12.103942607021331
1682095891033876000,9.5078759765625,0.282997368870303,-0.14132219535708426,15.19843773137927
1682095891054004000,9.52800390625,-0.22285817666277288,0.20429449209868908,13.204681496453285
1682095891074133000,9.548133056640625,-1.0037081096135079,2.202607075154781,9.416633029803632
1682095891094261000,9.568260986328125,0.49365562384724615,7.563967519566416,6.415087991821766
1682095891114390000,9.58839013671875,2.5601415794193745,7.7095403581053015,7.134955925065278
1682095891134518000,9.60851806640625,2.339272969138622,10.459488470065594,2.426604046589136
1682095891154646800,9.628646728515625,-2.9814345623672005,12.905858708876371,0.9324012613773346
1682095891174775800,9.64877587890625,-5.742611924350261,14.86510477143526,-3.8217245262801645
1682095891194903800,9.66890380859375,-3.830093710696697,13.314646430516243,-5.836192709845304
1682095891215033000,9.689033203125,-1.294434392235428,10.81021095622778,-6.223354290610551
1682095891235160800,9.709160888671875,0.7878513361454009,7.881679716530442,-6.957113971084356
1682095891255289900,9.729289794921876,2.0951346885599196,4.242586132073402,-7.496568054032325
1682095891275419000,9.7494189453125,1.4442146193362773,-0.27919278895556926,-7.9521087590187784
1682095891295547000,9.769546875,0.1286651044882834,-4.131950751402974,-7.693167315453291
1682095891315676000,9.789676025390625,-0.8424996027864515,-5.532365245848894,-5.71167318072915
1682095891335804000,9.809803955078126,-1.4281649634197353,-6.964422248271108,-2.976831160224974
1682095891355933000,9.829932861328125,-1.3104384554445743,-8.741368208396434,-2.048250041657686
1682095891376061000,9.85006103515625,-1.2650023999154567,-10.324059424400328,-3.6866456092268227
1682095891396190000,9.87018994140625,-1.8179918178714811,-11.594896521818637,-5.353676319649815
1682095891416319000,9.890319091796876,-2.030224701754004,-11.714286286830902,-5.5162108143836255
1682095891436447000,9.910447021484375,-1.9650338521800934,-11.65235151644349,-4.701252860125899
1682095891456575700,9.93057568359375,-1.0663865379750728,-11.30206508361101,-4.315552876345813
1682095891476704000,9.9507041015625,-1.146128183209896,-10.966285315036773,-5.731791839650273
1682095891496832800,9.970832763671876,-0.9720038615126162,-7.674286089372634,-9.459325339582563
1682095891516961800,9.9909619140625,-0.7278573245622217,-2.434492754012346,-11.581683989024162
1682095891537089800,10.01108984375,-1.4486439800858497,0.4133399781167507,-9.596245500588417
1682095891557218800,10.03121875,-0.6925801864106208,2.9082851550042625,-9.610546413141488
1682095891577346800,10.051346923828126,-1.0963819363314657,6.668226302066445,-10.233386050784587
1682095891597475800,10.071475830078125,-2.139855143165588,11.499419547313451,-12.308821036487817
1682095891617603800,10.091603759765626,-2.138273426932096,12.16345862582922,-10.807698681145906
1682095891637732900,10.11173291015625,-1.076324579143524,11.419848582470417,-8.200212582227588
1682095891657862000,10.13186181640625,-0.670833634026721,10.130921701610088,-4.386708771803975
1682095891677990000,10.151989990234375,-1.0550209482215345,8.531329619687796,-0.6840455092340707
1682095891698119000,10.172118896484376,-1.8398983831226825,6.1230105868518345,1.7682120340496301
1682095891718247000,10.192246826171875,-2.4175579858243466,2.9753660561084745,4.188203384500742
1682095891738376000,10.2123759765625,-1.2096002461671829,1.8864450302422044,7.7764587621241805
1682095891758505000,10.2325048828125,-0.20576208043321967,2.6410435006052255,10.989446410393715
1682095891778633000,10.252633056640626,-0.3224550075769424,1.4411287821501493,12.095450673007964
1682095891798761700,10.27276171875,-0.03439429090246558,0.11045300984084605,13.036555465322731
1682095891818890000,10.292889892578126,0.8956919715307653,-0.17420155165195464,14.477226566833258
1682095891839018800,10.313018798828125,2.02071073121652,1.5862158829987048,15.352855555152892
1682095891859146800,10.333146728515626,0.9889233590662478,1.3991104261100291,14.59726982731819
1682095891879275800,10.35327587890625,-0.43640418897047634,1.27756669793427,12.980840007841586
1682095891899404800,10.37340478515625,0.14119476958513258,5.209317533075809,11.090080037009715
1682095891919532800,10.39353271484375,1.9995032541453837,7.832897273182868,10.371537799412012
1682095891939662000,10.413662109375,0.8339163372278213,8.661859202873707,7.72250446909666
1682095891959789800,10.433789794921875,-2.5653169362306594,10.64288221295476,2.5902234139502047
1682095891979918800,10.4539189453125,-4.002432098825276,11.819271094393729,-1.0655623621106147
1682095892000047900,10.4740478515625,-2.1885294499635695,12.694026807010173,-3.193242498835921
1682095892020176000,10.49417578125,1.0445010155119,12.402918539333342,-3.926861894056201
1682095892040305000,10.514304931640625,2.204483244290203,11.184071156871319,-5.362573911854624
1682095892060433000,10.534432861328124,1.2611796267569064,7.668384171852469,-8.689085063451529
1682095892080562000,10.55456201171875,0.46104631666541096,3.148659260743856,-10.051056137734651
1682095892100690000,10.57468994140625,-0.31499884635210035,-0.7337023973286152,-8.98723915798664
1682095892120819000,10.59481884765625,-0.7374163032852112,-3.9484465338766572,-7.345586049926281
1682095892140947700,10.61494775390625,-0.758866210810095,-5.839284246119856,-5.514754770356417
1682095892161075700,10.63507568359375,-1.4825627624310551,-7.666548773118853,-3.5716315750807524
1682095892181204700,10.655204833984374,-2.522424719965458,-9.490186341792345,-3.3911244935438036
1682095892201332700,10.675332763671875,-3.342534650158882,-11.604908212745189,-5.020629190909863
1682095892221461800,10.695461669921874,-3.210996182191372,-12.834488586145639,-5.509146867346764
1682095892241591000,10.715591064453125,-2.1976981141947207,-11.892642620074747,-4.671748240961134
1682095892261719000,10.735718994140624,-1.7974784605443477,-10.844632281267643,-4.285114483462274
1682095892281848000,10.75584814453125,-2.061359698599577,-11.38065755881071,-4.9653334201455115
1682095892301976000,10.77597607421875,-1.985140382272005,-11.339894171267748,-5.845206037384271
1682095892322104800,10.796104736328125,-0.8520878076039254,-7.193602759823203,-7.2657836144149295
1682095892342232800,10.81623291015625,-1.246297699445486,0.04959434425234795,-6.873446676838397
1682095892362361900,10.83636181640625,-2.847121953511238,3.2519279120385645,-7.677480501499772
1682095892382491100,10.8564912109375,-1.4675263752102852,2.9855168632447717,-12.098957804346083
1682095892402619000,10.876618896484375,1.2272738500237463,6.236630536291003,-14.223036701709031
1682095892422748200,10.896748046875,1.0249521193027495,12.264117971408366,-12.935523194777964
1682095892442876200,10.916876220703125,-3.398011622709036,13.302800509899853,-9.474522324192524
1682095892463005200,10.937005126953125,-5.299684617221355,11.707674175214766,-7.8000261001944535
1682095892483134000,10.957134033203126,-4.377227242231369,9.90700539419651,-5.331894695952534
1682095892503262000,10.977261962890625,-2.8436335268735884,7.2356772299647325,-0.9136503836780786
1682095892523391000,10.997390869140625,-0.23085107511281966,5.176177480018138,3.0048540163993835
1682095892543519000,11.01751904296875,0.9598889146964996,3.3849680167406797,6.745927965906262
1682095892563648000,11.03764794921875,0.9304208281498402,1.3976929605275392,9.603092005482315
1682095892583777000,11.057777099609375,1.5953694957911968,-0.15767419522106646,11.31323880405426
1682095892603905000,11.077905029296875,2.0725871950566765,-1.0021025741130114,11.904883677488565
1682095892624034000,11.098033935546875,2.5811598175287247,-1.032592404922843,13.162156359934807
1682095892644162000,11.118162109375,2.7273534183144568,-0.5823802014827728,14.268726439738273
1682095892664290800,11.138290771484375,2.289070722121,-0.4228384588241577,13.866298316258192
1682095892684420000,11.158420166015626,1.7487842800021172,-0.45401334928870196,13.115200547492503
1682095892704547800,11.1785478515625,1.19420737365894,0.3264303409487009,11.565448309016228
1682095892724677000,11.198677001953126,1.8850316563129423,3.6312031234681603,9.740920513504744
1682095892744805000,11.21880517578125,3.506037113142013,8.516207453879714,9.218151023375988
1682095892764934100,11.23893408203125,1.162604540105909,8.240921609234809,7.45108991292715
1682095892785063000,11.25906298828125,-1.4347547170735895,9.998642059886455,2.5770062049806115
1682095892805191200,11.279191162109376,-2.2805497081436217,12.055576927781104,-0.4625292486995458
1682095892825320000,11.29931982421875,-0.6960252853631973,13.275921855324507,-2.0589339327573777
1682095892845448000,11.319447998046876,-0.24347207175493238,12.9171808978796,-1.1108277372479438
1682095892865577000,11.339576904296875,-1.0266320352137088,12.003666707801818,-1.7589707429736852
1682095892885705000,11.359705078125,-1.217720497323945,9.557007130655645,-5.617424871236086
1682095892905834000,11.379833984375,-1.5167372731029987,4.012973658844828,-9.85821652110815
1682095892925963000,11.399962890625,-1.583356401914358,-1.2042173840850592,-10.006544795835017
1682095892946091000,11.420091064453125,-1.4189340476073324,-3.049586892095208,-6.4165364370644085
1682095892966219800,11.4402197265625,-1.876030019211769,-4.298191699439287,-3.6385716064095495
1682095892986348000,11.46034814453125,-2.8261270962774754,-6.858833629596233,-2.937405158765614
1682095893006476800,11.480476806640626,-4.3397257790938015,-9.114996938371657,-3.0361551635921
1682095893026606000,11.500606201171875,-5.370878214341402,-10.554744495296477,-4.249502195072174
1682095893046734000,11.520734130859376,-5.341580808186531,-11.98353928105235,-5.906915766844153
1682095893066863000,11.540863037109375,-3.8775405215263365,-12.392972314858437,-5.656737475448846
1682095893086991000,11.5609912109375,-2.576633280014992,-12.079638186848163,-4.228907443071901
1682095893107120000,11.5811201171875,-3.03744228079319,-11.858553303468227,-4.8630996648564935
1682095893127248100,11.601248046875,-3.2056291022002696,-10.000850383585691,-7.379016025841236
1682095893147377000,11.621376953125,-1.702504174864292,-4.394920719832181,-9.022291766667365
1682095893167506000,11.641505859375,-3.0251509544968602,1.8511591973274946,-7.599954194226861
1682095893187634000,11.661634033203125,-4.280388331723213,4.343241385999321,-7.858980393466353
1682095893207763000,11.681762939453124,-3.256712808227539,6.362395097032189,-11.163079806768893
1682095893227891000,11.701890869140625,-2.231101348233223,8.596031516700982,-12.810344324970245
1682095893248020200,11.722020263671874,-1.4507272161006928,11.90974105439186,-11.429319006127118
1682095893268149200,11.742149169921875,-1.7459212917864322,13.811963499480486,-6.599021832937002
1682095893288277200,11.76227734375,-3.1771687313914296,11.267013643974066,-2.4680063165575263
1682095893308406000,11.782406005859375,-3.212773128736019,8.29172123762369,-0.21362053884863852
1682095893328534000,11.802533935546874,-2.3745642088808117,6.039706280699372,1.9298995565652846
1682095893348663000,11.8226630859375,-1.0137994416475296,3.736149937108159,2.7835294790446756
1682095893368791000,11.842791015625,-0.06464461386799812,1.0557412253201006,3.90797073110342
1682095893388920300,11.86292041015625,2.066376065456867,0.3491471996694803,7.742261308968066
1682095893409049300,11.88304931640625,3.8247359830558296,0.47329906451702114,11.481176619136333
1682095893429177300,11.90317724609375,4.1569338014900685,0.32334289632737634,12.501938885533809
1682095893449306400,11.923306396484374,1.9682336711347101,-0.8120359293311834,11.126254927718639
1682095893469434400,11.943434326171875,0.4816507132768631,-2.1428689380288124,12.296027021366356
1682095893489563100,11.963563232421874,2.0965771424531936,0.5419681115955114,14.43568693422079
1682095893509692200,11.983692138671875,2.1498691721796988,1.6669214048296213,16.256947252368928
1682095893529820200,12.003820068359374,1.9405097979068755,2.6732594245553014,12.935851696079968
1682095893549949200,12.02394921875,2.6228034950375556,5.645568431180715,6.7288909063875675
1682095893570077200,12.0440771484375,1.8820307209312914,6.188506264591217,5.456420070287585
1682095893590206200,12.064206298828125,-0.1823895342826843,8.223868183103203,3.960252122482657
1682095893610335200,12.084335205078125,-1.033187448206544,10.049645101892947,0.41558688026070595
1682095893630463200,12.104463134765625,-1.6879133394539356,10.000542925071716,-2.2766923020631076
1682095893650592000,12.124592041015624,-0.6560282060176134,9.703989251470565,-3.9121132377356287
1682095893670720000,12.144719970703125,0.7135691253602504,8.709109614348412,-4.829794484364986
1682095893690849300,12.164849365234375,-1.0739011513888834,7.671878443709016,-4.736821601635217
1682095893710977300,12.184977294921875,-1.7199240962207316,5.44359858263731,-6.640086249253153
1682095893731106300,12.205106201171875,-2.3420623075962066,2.4734558141350744,-7.670444026991724
1682095893751235300,12.2252353515625,-2.9430548550903795,0.04657178156077862,-5.987370528784394
1682095893771363300,12.24536328125,-3.492152380174398,-2.144279389348626,-3.97119437225759
1682095893791492000,12.2654921875,-3.6819185807049273,-4.714886833202838,-3.1871672705754635
1682095893811620400,12.285620361328125,-3.491677748399973,-7.00011315485537,-2.4528227759510277
1682095893831749000,12.3057490234375,-3.372483213698864,-8.956867985120414,-1.6626058797180652
1682095893851878100,12.325878173828125,-3.0780455093383785,-10.186825375139712,-1.555370370618999
1682095893872006100,12.346006103515625,-2.2189923927664754,-10.500220293426514,-1.5916075129091738
1682095893892135200,12.36613525390625,-1.398161162561178,-10.389320124340056,-1.6641662609025836
1682095893912263200,12.38626318359375,-0.7734919714033603,-11.102521000909805,-2.1061559949204325
1682095893932392200,12.40639208984375,-0.3183645233929157,-10.851613810718058,-2.389891395741701
1682095893952520200,12.426520263671875,-0.3667325407207012,-8.93716550578475,-3.214369750277698
1682095893972649200,12.446649169921875,-0.6672340751647949,-5.753479939845204,-5.241875402331352
1682095893992778200,12.4667783203125,-0.5611246474862098,-1.4590554839849472,-6.898329773682356
1682095894012906200,12.48690625,-1.705368916645646,0.04066401882171631,-8.446026248672604
1682095894033035300,12.50703515625,-3.196151664280891,1.35783616643548,-10.938338154447077
1682095894053163300,12.527163330078125,-4.280853611147403,5.8536582239091395,-12.648796503186226
1682095894073292300,12.547292236328126,-3.947209101036191,10.154671995031833,-12.150392223507165
1682095894093421300,12.56742138671875,-3.550032906734943,10.497566564047336,-8.556451785984635
1682095894113549300,12.58754931640625,-2.0063859993964432,9.041741148024798,-7.766637040811776
1682095894133678000,12.607677978515625,-1.0170388619601727,6.73116060488522,-6.974393022665381
1682095894153806300,12.627806396484376,-0.8882792110562324,5.351953149119019,-4.368136757802963
1682095894173935000,12.64793505859375,-1.2903764951467513,4.39449401885271,-0.37037761922478674
1682095894194063000,12.66806298828125,-0.6287878054577857,3.185440885174274,3.0290017847061157
1682095894214192000,12.688192138671875,0.923875425094366,2.0736919414281845,5.835412957644462
1682095894234320600,12.708320556640626,2.017576670974493,0.35975568744540215,9.069190295964479
1682095894254448600,12.72844873046875,2.5349054313540456,0.20656068346500395,10.827246262180804
1682095894274577700,12.74857763671875,1.6524292074881493,1.4273007478058337,11.972878770828247
1682095894294705700,12.76870556640625,1.4272539860546587,0.9840466929405927,12.352481314516067
1682095894314834700,12.788834716796876,2.036053407907486,0.4427431827336549,12.487683565688133
1682095894334963500,12.80896337890625,1.2396575307786464,0.42142391585111616,12.72644672909975
1682095894355091500,12.829091552734376,-0.8313842614669352,1.4250614444464444,11.959306172549724
1682095894375220500,12.849220458984375,-0.8163398370701819,4.815532150256633,10.804461598920822
1682095894395348500,12.869348388671876,2.55841490175724,10.08227662090659,9.643202482074498
1682095894415477500,12.8894775390625,3.318613676345348,7.902229752606153,9.54243383090198
1682095894435605500,12.90960546875,1.8412424912080168,10.434145939016341,4.13537078897953
1682095894455734800,12.92973486328125,-2.088522576943785,11.930187630093098,1.5253297448813914
1682095894475863800,12.94986376953125,-3.1630326540112494,12.888111455261706,-1.931793407487869
1682095894495991800,12.96999169921875,-0.085259678003937,12.452780594611168,-2.3904279868364333
1682095894516120600,12.99012060546875,1.4325323648490011,11.35505082386732,-2.873454080119729
1682095894536248600,13.01024853515625,1.4759163101539015,9.474675468927622,-5.2165521605044605
1682095894556377600,13.030377685546876,0.9008953853927553,6.169114166378974,-9.274864259722829
1682095894576506600,13.050506591796875,0.803832091544196,0.7023036349803209,-11.172352662026881
1682095894596634600,13.070634521484376,1.6090473080098628,-3.8086768286585806,-9.497800323927402
1682095894616763600,13.090763671875,1.0804231735687702,-5.552099289366603,-6.300338161569833
1682095894636891600,13.1108916015625,-0.8791466410517692,-6.455125403177738,-3.602073767356574
1682095894657020700,13.131020751953125,-2.482203768736124,-9.135932174372673,-1.4707161111623048
1682095894677149400,13.1511494140625,-3.2375743925154206,-11.32140574389696,-1.5038807141393422
1682095894697277400,13.17127734375,-3.584678688180446,-11.658031900167465,-1.9638322213053703
1682095894717406500,13.191406494140624,-3.680065646314621,-11.89075578341484,-2.450695700794458
1682095894737534500,13.211534423828125,-2.893808885884285,-12.12440204220414,-2.5575913104146717
1682095894757663700,13.231663818359374,-2.001330469572544,-12.584212679594755,-2.402550678567588
1682095894777791700,13.251791748046875,-1.1902104860424996,-11.626961054599285,-3.554764611431956
1682095894797920800,13.271920654296874,-0.5904828439176082,-7.499536256188153,-6.683840050783753
1682095894818049800,13.2920498046875,-3.4232547850370407,-1.3071417519867419,-9.746386962217091
1682095894838177800,13.312177734375,-7.1658502450227735,-0.11715806043744087,-10.595841060316562
1682095894858306600,13.332306640625,-5.593332047986984,1.8950725733339786,-13.559011651718615
1682095894878434600,13.3524345703125,-3.664578154325485,5.203892000895738,-14.354137947303055
1682095894898563600,13.3725634765625,-3.240252671813965,9.623823827865719,-14.38879892631769
1682095894918692600,13.392692626953124,-5.304346763813495,11.346680470407009,-10.963317112880944
1682095894938820600,13.412820556640625,-5.059081378901005,10.145784924221038,-8.47553875888288
1682095894958949600,13.43294970703125,-2.3649685514092442,9.08378931468129,-5.543829473671317
1682095894979077600,13.45307763671875,-0.3903179989695549,8.477818978774547,-0.5098831205487251
1682095894999206700,13.47320654296875,0.36151392928957937,7.322595050439238,1.8533096533596514
1682095895019335400,13.49333544921875,-0.23461773416996,5.209412810143828,2.5009943939238783
1682095895039463400,13.51346337890625,0.22129648030400276,3.1419857743293047,5.322955602693558
1682095895059592700,13.5335927734375,2.9024411051511763,3.182188605380058,10.025800115925072
1682095895079720700,13.553720703125,3.992767321640253,3.2225188622027634,14.09196702029705
1682095895099849700,13.573849609375,2.7406957149684428,2.580841837620735,12.940209891289472
1682095895119977700,13.593977783203124,-0.09603106472399085,0.9484744442999362,11.660713686597347
1682095895140106800,13.614106689453125,0.9199123666822909,2.270941775712371,15.626276190447806
1682095895160235500,13.634235595703124,3.133264123213291,3.8017771322727203,17.577969061148167
1682095895180363800,13.65436376953125,3.5196740088284013,3.027040129244327,15.829567058461903
1682095895200492500,13.674492431640624,3.357083399993181,4.543850175322592,11.266273639261723
1682095895220620500,13.69462060546875,4.422069423520565,8.882931226772069,8.23816091234982
1682095895240749600,13.71474951171875,2.8589421551644802,7.966953276929259,7.269162150937318
1682095895260878600,13.734878662109375,0.7665712322294712,9.93923125501871,2.364625437059998
1682095895281006600,13.755006591796874,-1.3813259092248975,11.986479426157473,1.0490098712384701
1682095895301135600,13.775135498046875,-2.3791443762779236,13.2532178560853,-0.7035644486963748
1682095895321263600,13.795263671875,-1.1588460643552243,14.63889713821411,-2.515770522773266
1682095895341392600,13.815392578125,-2.5798504884958264,13.814218584930895,-3.6966181371867655
1682095895361521400,13.835521484375,-2.7077976539731026,11.432626230978965,-7.421423673459887
1682095895381649400,13.8556494140625,-1.9030675176106393,7.566974884688854,-9.682955231270194
1682095895401778400,13.8757783203125,-0.7159973023552447,3.6942683591902252,-8.64182296153903
1682095895421906400,13.895906494140625,0.1851499389067292,0.34034430001080035,-6.675333503723144
1682095895442035500,13.916035400390625,0.17318915973901747,-2.564967392140627,-5.685766586056351
1682095895462164500,13.93616455078125,-0.8918914102040231,-4.909785135924816,-5.1896472024440765
1682095895482292500,13.95629248046875,-2.203320191860199,-7.082836446249485,-4.916806412863731
1682095895502421500,13.97642138671875,-3.416752563536167,-9.05561185246706,-4.666107312464714
1682095895522549500,13.996549560546875,-3.929574660146236,-9.837992063724995,-4.570479239051044
1682095895542678500,14.016678466796876,-4.375450295686721,-10.533879401922226,-5.279603952223062
1682095895562806500,14.036806640625,-4.6464767293214795,-11.496645406425,-6.121575001090765
1682095895582935600,14.056935546875,-4.841808747285604,-12.49701253504753,-6.474719745963811
1682095895603064600,14.077064697265625,-4.278886110466718,-12.27645722849965,-6.113425596904754
1682095895623192600,14.097192626953126,-2.947145631535351,-9.886907193541527,-7.337824768275022
1682095895643321600,14.117321533203125,-1.3185260464407502,-4.2446717061758035,-10.897545540809631
1682095895663449600,14.13744970703125,-2.0478725866474212,-1.7278350154757498,-11.316498098111152
1682095895683578400,14.157578369140625,-2.6170927161753177,-0.5661696559160947,-11.791453697663545
1682095895703707400,14.177707275390626,-2.411560791236162,3.437185695233941,-13.73254334128499
1682095895723835400,14.19783544921875,-2.456878773343563,8.238482983911037,-16.859479430520533
1682095895743964400,14.21796435546875,-2.4813635185196996,11.165668069696427,-18.049560152703524
1682095895764092400,14.238092529296875,-3.220037566781044,9.91569606565237,-15.976659653913973
1682095895784221400,14.258221435546876,-2.9828058507204056,9.190327781426905,-11.591845317554473
1682095895804350700,14.278350830078125,-2.5378058289706704,9.066348935058713,-5.4838949371904135
1682095895824478500,14.298478515625,-1.498571501815319,8.332499822735786,-0.19911095198094844
1682095895844607500,14.318607421875,-0.1722644461095333,5.960021334087848,2.181978713145852
1682095895864735500,14.338735595703126,1.3000292896330357,3.685402331167459,5.056006209239364
1682095895884864500,14.358864501953125,3.6393361610412596,5.318367690381407,11.504871967500447
1682095895904992500,14.378992431640626,3.3993162755668163,5.021278594729304,15.476941369026898
1682095895925121500,14.39912158203125,2.6708114468812942,2.946853662851453,14.55316297456622
1682095895945250600,14.41925048828125,0.7141559122722595,1.2868886530309915,11.873545120894908
1682095895965378600,14.439378662109375,0.7216519671160727,1.885700349354744,13.847692984509468
1682095895985507600,14.459507568359374,0.5806102692008018,4.478794934827089,17.121420055902004
1682095896005635600,14.479635498046875,0.11844992687888443,4.65654804148078,17.22707823268175
1682095896025764400,14.499764404296876,0.324486805665493,5.25349745106399,14.32628547925949
1682095896045893400,14.519893310546875,2.538174077761173,10.237397039991617,9.074870095166563
1682095896066021400,14.540021484375,1.7492599346898494,10.071697943747044,8.582333246216177
1682095896086150400,14.560150390625,-0.9240215555667877,11.374126111215352,6.075970603257417
1682095896106278400,14.5802783203125,-1.3421135505162178,13.340526721704006,2.7641555010110137
1682095896126407400,14.600407470703125,-2.154285965708643,13.335447226482628,-0.6492822388887405
1682095896146536700,14.62053662109375,-0.5755190835416316,14.15440798664093,-1.6430910319089889
1682095896166664700,14.640664794921875,-0.9876898717485367,14.09166774508953,-2.281758937802911
1682095896186793500,14.66079345703125,-1.2641057433366776,12.209987737292051,-4.161770720127224
1682095896206921500,14.68092138671875,-1.016574605449289,8.88768806591034,-6.687032709345221
1682095896227050500,14.701050537109374,-0.7083493448853493,4.01244934270978,-8.821614296022057
1682095896247180000,14.721179931640625,-0.32232290562987326,-1.076184878411889,-9.349909856095909
1682095896267307800,14.741307861328124,-0.17667407924532888,-4.6726416826695205,-8.397148528257011
1682095896287437000,14.76143701171875,0.1669394516944885,-6.584839578327537,-5.62711390607953
1682095896307565000,14.78156494140625,0.2394925736647099,-8.04028096346855,-3.9334219832241533
1682095896327693800,14.80169384765625,0.015722469788789748,-9.791966810131072,-5.360343376323581
1682095896347822800,14.82182275390625,0.26368721332047135,-11.500271780228614,-7.155387303197384
1682095896367950800,14.841950927734375,0.7382651751995086,-12.367447412979603,-7.1064487925052635
1682095896388079900,14.862079833984374,0.2856044095635414,-11.859808856487273,-5.881928040581942
1682095896408208000,14.882207763671875,-1.1241162578880786,-11.35451072564125,-6.296077581515908
1682095896428337000,14.9023369140625,-1.7010101369142532,-11.560298671168088,-9.012323330360651
1682095896448465000,14.92246484375,1.091317565613985,-7.188295885586738,-11.045415550374985
1682095896468594000,14.942593994140625,0.731966367316246,-2.3417086718529463,-9.58370633701086
1682095896488722700,14.96272265625,-3.5348879445731636,0.32956045566797254,-10.473177972722054
1682095896508850700,14.9828505859375,-4.737832824504375,0.9090162941366433,-12.44076399360299
1682095896528979700,15.002979736328125,-2.2689468025028705,3.565715629035234,-13.366202430230379
1682095896549107700,15.023107666015624,0.3585854746222496,7.487657602345943,-11.482656628561019
1682095896569236700,15.04323681640625,1.3035972112476826,9.867227510559559,-7.6614698624193665
1682095896589366000,15.063365966796875,-1.60804543749094,10.282651893734931,-6.701499041593074
1682095896609494000,15.083493896484375,-4.483372910267114,8.137786228930949,-8.349012566119432
1682095896629623000,15.103623046875,-3.8589527254343032,5.8030129092991345,-5.6114463813483715
1682095896649751000,15.1237509765625,-1.344991882431507,5.0310447864621874,-0.6268482887625694
1682095896669879800,15.1438798828125,-0.5386803220964967,3.509993157291412,2.2738176234096286
1682095896690008800,15.1640087890625,-1.77514972435832,3.041319414487481,2.1823177358418704
1682095896710136800,15.18413671875,-3.2483810332119463,1.76106917655766,4.469805572685599
1682095896730265900,15.204265869140626,-1.1743699428319931,3.120013011974096,10.12597664642334
1682095896750393900,15.224393798828125,0.9081624537862837,3.299432590535283,15.074024585247038
1682095896770523000,15.24452294921875,0.23642872911468146,2.5165911915063854,13.017038279426098
1682095896790652000,15.26465185546875,-2.6248084051191807,1.0898352181017399,9.116510850065946
1682095896810780000,15.28477978515625,-3.0542893706977368,-0.6881149506300688,10.917330437731742
1682095896830908700,15.30490869140625,-0.06822071878910065,3.486177397418022,16.02084950877428
1682095896851036700,15.32503662109375,1.1253846703886985,5.128481078341603,15.806826818865536
1682095896871165700,15.345165771484375,2.2987156255617736,9.903812735635041,10.617058035868405
1682095896891295000,15.365294921875,0.9223384247854352,9.276158975708483,8.765092782855033
1682095896911423000,15.385423095703125,-1.832357173962891,9.422242101857066,4.4943367873519655
1682095896931552000,15.405552001953126,-1.354333711272478,11.045164205962418,0.6990823348462581
1682095896951680000,15.425679931640625,-1.5928844009771943,12.711494659161566,0.10116846414506435
1682095896971809000,15.44580908203125,-1.1140347165957092,13.844644118332862,0.3642208501607179
1682095896991937800,15.465937744140625,-1.2921367828175425,14.371338088428974,-0.3713900111377239
1682095897012065800,15.486065673828126,-1.2373334717452524,11.57517942943573,-5.641782482901215
1682095897032194800,15.50619482421875,0.23827903315648435,6.5915329384863375,-9.545158871951699
1682095897052322800,15.52632275390625,2.0507515030845997,1.4982979455709458,-8.920005112147331
1682095897072451800,15.546451904296875,2.0726979619547725,-1.1557003136754036,-6.901393837428093
1682095897092580900,15.566580810546874,-0.1894273239649832,-3.255928964373469,-6.205519943234324
1682095897112708900,15.586708984375,-1.6408046745374798,-5.684747764402627,-5.737042599785328
1682095897132838000,15.606837890625,-1.3155224807105959,-7.863749507564306,-4.432963157978653
1682095897152966000,15.6269658203125,-1.1141055898748338,-9.374344624650478,-2.61950357670933
1682095897173095000,15.647094970703124,-1.9053752100311219,-10.157335076761244,-1.3039403255969286
1682095897193222700,15.66722265625,-2.365698326988518,-10.22150155172348,-2.2199060004800555
1682095897213352000,15.68735205078125,-1.8758045398928225,-12.311847690832614,-3.8909666970714922
1682095897233480200,15.707480224609375,-0.6093828477639704,-13.464188172686098,-4.194574673098326
1682095897253608200,15.727608154296876,0.18856325448155403,-12.304890711301564,-3.5880627776607867
1682095897273737500,15.747737548828125,0.039223829950764774,-10.089255812269448,-4.649409860163927
1682095897293865500,15.767865478515626,-0.16534728713221847,-6.328010596871375,-9.096786158898473
1682095897313994500,15.787994384765625,-0.8785353042203933,-4.6214463329613205,-9.410377476540207
1682095897334123300,15.808123291015624,-0.8237538396537304,-2.0523452020168302,-9.9921047670722
1682095897354251300,15.828251220703125,-1.088870756983757,2.239532491970062,-10.44380925489664
1682095897374380300,15.84838037109375,-2.7318670963466167,4.988718971908092,-11.772095501720905
1682095897394508300,15.86850830078125,-2.403757424008846,6.524940113160014,-14.081995076858997
1682095897414637300,15.88863720703125,-1.941510499382019,7.081945634889602,-13.93732240203023
1682095897434766300,15.908766357421875,-1.1521347301483154,6.691171124324202,-12.642117756074667
1682095897454894300,15.928894287109374,-0.3223486611256376,6.157713066920638,-9.319531668967008
1682095897475023400,15.9490234375,-0.6759037038326263,5.930279106774925,-4.100128210684657
1682095897495151400,15.9691513671875,-0.9904887086868286,5.189673505929112,0.277042917445302
1682095897515280100,15.989280029296875,-0.3564098841488361,4.276436963748932,2.735631417316198
1682095897535409200,16.0094091796875,1.2640250793159007,4.342039901255071,6.000678338646888
1682095897555537200,16.029537109375,2.9155408252209423,3.9159333805456757,11.206776325154303
1682095897575666400,16.04966650390625,3.6655356011807916,3.5998368020847438,13.593175787127016
1682095897595794400,16.06979443359375,2.1252362507045266,3.458873503167927,12.229902398073673
1682095897615923500,16.08992333984375,-0.09941550126420333,3.0944004318118092,9.97412487374544
1682095897636052500,16.110052490234374,0.5275497101426124,4.673871808986365,11.855392209088802
1682095897656180500,16.130180419921874,2.0267513265550137,5.945666060999035,13.600116400045156
1682095897676309200,16.150309326171875,3.9670331609249114,7.08385292981565,13.097204287552833
1682095897696437200,16.170437255859376,4.49078464782834,9.598165070474147,10.858854867887496
1682095897716566300,16.190566162109373,3.2105192123293875,10.086917724710702,8.89902720604837
1682095897736695300,16.2106953125,0.8336628008581698,9.681347211551666,4.91539070084691
1682095897756823300,16.2308232421875,0.22359248228669165,10.841115797579288,-1.5019482847720385
1682095897776952300,16.250952392578125,-0.5229870053369552,11.443273881721495,-2.5411165609538555
1682095897797080300,16.271080322265625,1.0077905566215515,11.193347519260644,-3.6626001322507857
1682095897817209300,16.291209228515626,3.3849475584745403,9.419638641360402,-5.588029265403748
1682095897837338400,16.31133837890625,2.8672072946846483,7.927324446374177,-7.41585960959196
1682095897857466000,16.331466064453124,-0.029059067354351282,5.530577193388343,-8.518194828304647
1682095897877595400,16.351595458984374,-1.790951981385052,2.3045254808843136,-9.516970303821562
1682095897897723400,16.371723388671874,-1.1350338116131722,-1.171730826500058,-9.130739281904697
1682095897917852400,16.391852294921875,0.2649849615134299,-4.793821253708004,-7.05645580432415
1682095897937981400,16.4119814453125,-0.11069456351175903,-6.731606010565161,-3.9861774218559263
1682095897958109400,16.432109375,-3.0703508631825445,-6.910109643325209,-1.532031288346648
1682095897978238500,16.452238525390626,-5.511285048419237,-8.722033977851272,-0.4411030143111944
1682095897998366500,16.472366455078124,-4.5043981626391405,-10.952768830859661,-1.249917643508315
1682095898018495200,16.4924951171875,-3.1577298714280126,-13.03299689605832,-1.0978460905998944
1682095898038624300,16.512624267578126,-4.063837000119686,-13.538190982007979,-0.3544675179094076
1682095898058752300,16.532752197265626,-5.833425583219528,-12.965145595103502,-0.6663473554581404
1682095898078881300,16.55288134765625,-6.622602615010738,-12.65865621842146,-2.0473300042033196
1682095898099009300,16.57300927734375,-3.3975112719714637,-11.82467558378577,-3.7716093730241056
1682095898119138300,16.59313818359375,1.0172714286070317,-7.222340194007754,-4.9311687002152205
1682095898139267300,16.613267333984375,-0.244325546779111,-2.1524632803261277,-5.355222964569926
1682095898159395300,16.633395263671876,-4.886231241858005,0.8536053725600242,-10.849477967733144
1682095898179524400,16.6535244140625,-4.564129285502434,0.9373375487357377,-15.217089824879169
1682095898199652400,16.67365234375,0.18471352025084195,4.2024791626125575,-15.936984646129607
1682095898219781400,16.693781494140627,1.8460861318469046,7.713772881108522,-14.686935485196113
1682095898239911200,16.7139111328125,-1.5948060166895388,9.37792131409347,-12.626796268302202
1682095898260039200,16.7340390625,-4.088633587723971,8.621720084708928,-11.389496698826552
1682095898280168000,16.75416796875,-3.7474656963706012,6.975062884750962,-7.528689285436272
1682095898300297000,16.774296875,-1.5123957367673515,7.514662513649463,-0.7275543960928916
1682095898320425000,16.794425048828124,-0.3328418154262006,7.113758823257684,5.757535937237739
1682095898340554000,16.814553955078125,-0.7196330285090953,5.951518878680467,8.994911592310666
1682095898360682000,16.834681884765626,-1.2607481034718453,4.985409408968687,9.20427096658349
1682095898380811000,16.85481103515625,-0.5370538899384438,3.8149467027083035,8.946801349136233
1682095898400939000,16.87493896484375,0.8724864525102078,2.4687571349248287,9.849135389029978
1682095898421068300,16.895068359375,2.2324911951564252,3.6260257208302615,11.626916630935668
1682095898441197000,16.915197021484374,1.895258451294899,4.601923301845789,13.00220428290963
1682095898461325000,16.935324951171875,0.020861586242914197,5.2466725734800095,13.806327539420128
1682095898481454000,16.9554541015625,-1.0421791484355927,5.496352852225304,13.213980070674419
1682095898501583000,16.9755830078125,0.8115642201662063,6.816849760347604,12.085990770745276
1682095898521711000,16.995711181640626,4.072832792001963,9.160725839367508,10.483826792508363
1682095898541840100,17.015840087890624,5.036853180480003,9.15678791539669,7.098815521147847
1682095898561968000,17.035968017578124,1.0397029675804077,9.576196399772167,2.917856116425991
1682095898582097200,17.05609716796875,-0.3357154711663723,11.51844339673519,-1.0482160905122757
1682095898602226000,17.076225830078126,0.1332613462373614,11.17237487385869,-6.61995122371912
1682095898622354000,17.09635400390625,1.547962140189111,9.51990343466401,-7.690859623032808
1682095898642483000,17.11648291015625,1.4038810015127061,8.665138370674848,-5.910584226223826
1682095898662611000,17.13661083984375,-0.09594941432252525,7.50627696262002,-4.167862607261538
1682095898682740000,17.156739990234374,0.3116857762813568,5.359059766253829,-5.60590920548737
1682095898702869200,17.176869140625,-0.40963542451038953,1.4348071779131888,-10.069949054253101
1682095898722997200,17.196997314453125,-2.018531779742241,-3.1648674682229756,-9.258668911725282
1682095898743126300,17.217126220703125,-2.1393113916777073,-4.0633740587830545,-4.758102290073037
1682095898763254300,17.237254150390626,-3.0907991924494502,-5.561459822908043,-1.8475339925676584
1682095898783383000,17.257383056640624,-5.043058464860916,-6.786186326536535,-0.8034609932094812
1682095898803512000,17.277511962890625,-7.44228701326847,-8.36044639880359,-2.016249221763015
1682095898823640000,17.29764013671875,-8.943135812366009,-11.713481984710693,-5.067979555627703
1682095898843769000,17.31776904296875,-6.642182344749569,-12.482474306607246,-3.5817052253276107
1682095898863897000,17.33789697265625,-3.8023154769331216,-11.775807215720414,-0.6604372546315193
1682095898884026000,17.358026123046876,-2.7872786024451255,-11.188609384822845,1.1105728857040404
1682095898904155100,17.378155029296874,-3.4241035108208653,-11.619469822061061,-0.7135054124742746
1682095898924283100,17.398283203125,-3.055417497944832,-10.671867484420538,-3.492655068999529
1682095898944412000,17.418411865234376,-1.4510346746146678,-5.4217696126669646,-3.7607793514519927
1682095898964540000,17.438539794921876,-3.044493952870369,-0.3956552683442831,-4.26845765543282
1682095898984669000,17.4586689453125,-3.8480455469727515,0.41246553336977954,-10.276268914699553
1682095899004798200,17.478798095703127,-2.2942963478147984,1.1615677444040775,-14.416844286584853
1682095899024926200,17.49892626953125,-0.7184838584739714,4.987397952437401,-16.865160983288288
1682095899045055200,17.51905517578125,-1.5141618696570396,9.063938366785646,-17.11783927480578
1682095899065183200,17.539183349609374,-3.717430623590946,8.65987416653633,-14.964270079064368
1682095899085312300,17.559312255859375,-3.7039760987341404,7.937295220768451,-13.354010472655295
1682095899105441000,17.57944091796875,-2.2962813841521736,7.226248307362199,-7.8803002448707815
1682095899125569000,17.599569091796877,-0.27227723741345106,8.208909098902344,-0.749840462180972
1682095899145698000,17.619697998046874,0.5193407577890903,7.556728800484538,3.829625508663058
1682095899165826000,17.639825927734375,-0.15687741882018744,5.472669194298982,5.539319887292384
1682095899185955000,17.659955078125,-0.21230072495434432,3.396802246919274,7.050362748146057
1682095899206084000,17.680083984375,1.6185107174038886,3.287326265417039,9.60452057698071
1682095899226212000,17.700212158203126,2.630373053508997,3.9147006238803264,11.640311534559727
1682095899246341400,17.72034130859375,2.5776386576652524,4.176253711248934,12.229928117036819
1682095899266469400,17.740469482421876,2.3837726206004617,3.6917800495058297,11.89493043875098
1682095899286598400,17.760598388671873,4.05577293612957,5.244962846952676,15.154064336645602
1682095899306727400,17.7807275390625,4.492129048174619,5.976966623669862,17.22880841747522
1682095899326855400,17.80085546875,2.7026141138553617,6.628494595658779,15.18336524993181
1682095899346984400,17.820984375,2.9125170934855937,9.295423648148775,10.861111122381686
1682095899367112400,17.841112548828125,4.808925591598451,12.200448340052365,11.003045896679163
1682095899387241500,17.861241455078126,1.4536650231182575,10.93982634717822,6.460474947512149
1682095899407370500,17.88137060546875,-0.8655822260797024,12.745419140595198,-0.9954045377790928
1682095899427498200,17.901498291015624,-3.1511200978994367,13.004672134327889,-4.827057752877473
1682095899447627500,17.92162744140625,-2.1751205178141593,12.969764487075805,-4.766017300981283
1682095899467755500,17.941755615234374,-1.710441689865291,11.750386358737945,-5.3817281096577645
1682095899487884500,17.961884521484375,-2.180266940791905,10.230069473582505,-7.507928821480274
1682095899508013600,17.982013671875,-2.410959610472619,7.567565836319327,-9.55869815248251
1682095899528141600,18.0021416015625,-2.1872547538526357,3.742341777485609,-10.469991159379482
1682095899548270300,18.022270263671874,-1.9618179588735103,0.8960983603745698,-8.561331374719739
1682095899568398600,18.042398681640623,-2.019156049120426,-1.2514251254618167,-6.6527464088618755
1682095899588527400,18.06252734375,-2.0913002249635753,-3.208157159373164,-5.537052526882291
1682095899608656400,18.082656494140625,-2.321424154845625,-5.291542227298021,-4.762010403427482
1682095899628784400,18.102784423828126,-2.102494988194853,-7.838961687788367,-4.327898563177883
1682095899648913400,18.122913330078124,-1.6625158633470534,-10.019154102039337,-4.692345331048966
1682095899669042400,18.14304248046875,-1.819090719024092,-11.733898165273665,-4.628830013471841
1682095899689170400,18.16317041015625,-2.80813901964426,-11.85528348801732,-3.569205809238553
1682095899709299500,18.183299560546875,-3.6945828319668768,-11.908667872202395,-3.1291470432832837
1682095899729427500,18.203427490234375,-3.3700258836746215,-12.40452714357376,-3.5695810722917316
1682095899749556500,18.223556396484376,-2.0384148763418195,-12.263973009979724,-4.738464984928071
1682095899769685500,18.243685546875,-1.4760719391070305,-8.663432151278853,-5.157240139836072
1682095899789813500,18.2638134765625,-3.029909254939854,-3.3943384871542452,-6.84479575189352
1682095899809942500,18.283942626953124,-4.5963890485942365,-3.462515951323509,-10.191976182031631
1682095899830070500,18.304070556640625,-0.7203951719880104,-4.0972459332466125,-14.79231542955637
1682095899850199600,18.324199462890626,2.8184733666539192,0.6366168185830116,-15.292833340388535
1682095899870328300,18.344328369140626,1.9198830433331429,5.4464627398967735,-16.601453932756186
1682095899890456300,18.364456298828124,-1.6851906364917755,8.658560745850204,-17.08931109945774
1682095899910585300,18.38458544921875,-3.5191587527826425,7.516799525678158,-14.645202960360049
1682095899930713300,18.40471337890625,-1.9376175835967062,6.298644217133521,-11.598969470345974
1682095899950842400,18.42484228515625,-1.766026506704092,5.4637406224340195,-7.542430810540914
1682095899970971400,18.444971435546876,-2.2565280504345893,6.283524973934888,-3.4248809249341488
1682095899991099400,18.465099365234376,-3.3991642998754976,5.766945570617914,0.34848142923712727
1682095900011228700,18.485228759765626,-1.2772541248537599,5.495474900346994,2.9127678533762693
1682095900031356700,18.505356689453127,1.6588637705802916,5.259989151170849,7.0966077819705005
1682095900051485400,18.5254853515625,2.7353730586409566,5.379443213590979,10.465205094146729
1682095900071614500,18.545614501953125,1.1491875707805157,5.744015945929289,10.779239479380845
1682095900091742500,18.565742431640626,-1.1651836698789149,5.123661110839247,9.647380644541979
1682095900111871500,18.58587158203125,-0.5454619450606405,5.159321037763357,10.19552072277069
1682095900131999500,18.60599951171875,0.5761234061103314,6.08866641870141,13.102623974514007
1682095900152128500,18.62612841796875,0.7203179420333355,7.500974180036783,13.806585898095369
1682095900172257500,18.646257568359374,0.057386021041870114,9.354078081691265,12.423789477926492
1682095900192385500,18.666385498046875,3.318026816368103,11.342208877950906,13.996266758430004
1682095900212514300,18.686514404296876,6.262933436805009,10.94911323096156,16.07364469489455
1682095900232643300,18.706643310546873,4.399077839511633,12.697392484050988,7.9002207508713
1682095900252770800,18.726770751953126,-0.2631739665687084,12.672481330156325,-0.23810499176383018
1682095900272899800,18.74689990234375,-1.3568316655680537,12.843760272359848,-2.4569547611892224
1682095900293027800,18.76702783203125,1.3944960641823707,14.049617240345476,1.3107137652546166
1682095900313156900,18.787156982421877,1.9998855314612387,14.367344634878634,0.332743177357316
1682095900333286000,18.807285888671874,1.1629331875383853,12.66424892386198,-5.516680185461044
1682095900353414000,18.827413818359375,1.208745675164461,9.828446821266413,-11.219646328121422
1682095900373543000,18.84754296875,3.129263947661221,6.9510501410007475,-9.437444347164034
1682095900393671000,18.8676708984375,2.5875311061263084,4.724108835056424,-5.421757922229171
1682095900413799700,18.887799560546874,-1.3010522029399871,2.402640402677655,-4.374920718854666
1682095900433929000,18.907928955078123,-5.9453919202327725,0.4632791902840137,-4.743685057663917
1682095900454057000,18.928056884765624,-8.587526138684153,-2.0451924076527357,-5.977805997103452
1682095900474186000,18.94818603515625,-8.521859196031093,-5.945714576315879,-7.991234900748729
1682095900494314000,18.96831396484375,-6.4286605901002885,-6.963077263402939,-6.222021580702066
1682095900514443000,18.988443115234375,-3.4820880822777744,-7.249228785455227,-5.23755169391334
1682095900534571800,19.00857177734375,-2.0585329507410526,-10.044688356268406,-9.017822512298823
1682095900554699800,19.02869970703125,0.678234630998224,-14.806054032051563,-11.747554934704302
1682095900574828800,19.048828857421874,1.4187104679845273,-13.950868112301826,-9.261456496617198
1682095900594957800,19.068957763671875,-1.5627942370094359,-10.452702170926331,-8.040614725467563
1682095900615085800,19.0890859375,-2.098282777327299,-4.556558557987213,-12.968193292236327
1682095900635214800,19.10921484375,-3.5112463722229004,-4.036177424299717,-14.885249733841418
1682095900655342800,19.1293427734375,-4.34695602260828,-2.058978356420994,-17.25677077563405
1682095900675472000,19.149471923828123,-5.844716208040714,2.0107032780736684,-19.88327663232088
1682095900695601000,19.169600830078124,-5.791882443475723,6.007041443938016,-19.53749101803899
1682095900715728600,19.189728759765625,-4.333093501472473,9.72229530801177,-17.03349276612401
1682095900735858000,19.20985791015625,-3.5055636504113674,11.377995646125077,-14.188684350252151
1682095900755986000,19.22998583984375,-1.9919804574251174,10.411018745929002,-12.036814944165945
1682095900776115000,19.250114990234376,-0.9494226118702441,10.06275242074728,-7.2613418325752015
1682095900796244000,19.270243896484374,-1.1013071177739648,8.70006413810551,-0.4108762183517217
1682095900816372000,19.2903720703125,-0.9300104937832802,7.941055450084805,5.245775916901231
1682095900836501000,19.3105009765625,-0.09898995106220244,5.908498067599535,8.594291979557275
1682095900856629800,19.330629638671876,4.544396995550394,4.022030825525522,8.538841895014047
1682095900876757800,19.3507578125,6.642158379352092,2.8295494719415903,7.453855870509147
1682095900896886800,19.37088671875,2.823053680181503,2.9087992420062423,7.058699783858656
1682095900917014800,19.391014892578124,-0.31608145395703613,4.716197039018571,7.918659493881464
1682095900937143800,19.411143798828125,-2.503736386108398,6.102229664629697,9.274907514342665
1682095900957272800,19.43127294921875,-3.417570894181728,5.557631789052486,9.800726455169915
1682095900977400800,19.45140087890625,-2.703986571252346,6.049239248198271,10.516319195312262
1682095900997529900,19.47152978515625,-2.2201849635519086,8.26992149374783,12.595768677353858
1682095901017657900,19.491657958984376,0.9435936865210532,11.22392269026637,12.221713246399164
1682095901037787000,19.511786865234374,3.5552643776476383,10.598798741078376,11.972474281680583
1682095901057916000,19.531916015625,1.6377378343127666,8.99697612362504,6.315093832153082
1682095901078044000,19.5520439453125,-0.31385522927492854,10.92182891819477,1.7432675624072551
1682095901098173000,19.5721728515625,-0.9577917232215404,12.215539526200294,2.0402350775063036
1682095901118301000,19.592301025390626,3.408281672310829,12.614061874413489,1.5843208630323409
1682095901138430000,19.612429931640627,4.779079027128219,11.416509793436527,-0.367245750939846
1682095901158558700,19.632558837890624,2.7141011380314826,10.31034654086828,-3.076608754533529
1682095901178687000,19.65268701171875,-2.2363621913708744,9.504818093734979,-4.022988272380829
1682095901198815700,19.672815673828126,-4.678754028069973,6.587743483075499,-5.015723298689723
1682095901218944800,19.69294482421875,-1.7276504526890812,3.054667556360364,-6.2040118767589325
1682095901239073000,19.713072998046876,1.2500887622915207,-0.3579465921968221,-3.9713141992449756
1682095901259202000,19.7332021484375,1.199782616508007,-2.314474043446779,-2.468072367531061
1682095901279330000,19.753330078125,-2.912307834649086,-4.612559846672416,-4.267714143589139
1682095901299459000,19.773458984375,-4.042013290846348,-7.41875182390213,-6.2175190085858105
1682095901319587800,19.793587890625,-1.7209530008770524,-10.175721797323225,-5.449485302588343
1682095901339715800,19.8137158203125,-0.2295734563924372,-11.35533373246193,-3.363441829109192
1682095901359844900,19.833844970703126,-1.4335587852872906,-11.162337463968992,-2.1513883445709943
1682095901379972900,19.853972900390627,-5.339304679948091,-11.155265918147563,-2.312753211003542
1682095901400102000,19.874101806640624,-6.697769791936874,-12.472365585047006,-3.5989199795007702
1682095901420231000,19.89423095703125,-3.653979603421688,-11.992799276828766,-4.78226642499268
1682095901440359000,19.91435888671875,-1.0479263137854635,-8.453934245318173,-5.507648153221607
1682095901460488000,19.934488037109375,-3.4541900215268133,-3.160951756083965,-7.516630598852038
1682095901480616000,19.954615966796876,-6.652192282110453,-2.6032383783459663,-13.144461713290214
1682095901500745000,19.974744873046873,-3.697102121311426,-2.034823573851585,-19.327478148293494
1682095901520874000,19.9948740234375,-0.2395578939858824,1.0110995350390672,-18.464867631500958
1682095901541002000,20.015001953125,1.249618952822685,5.944488249391317,-17.38092439404726
1682095901561131000,20.035131103515624,-2.769228566491604,10.134173981404304,-14.763844537353515
1682095901581260000,20.055260009765625,-5.851744499242305,10.792850656104088,-12.421784567844867
1682095901601388000,20.075387939453126,-2.2407529736757277,9.137401662403345,-7.0997747215688225
1682095901621517000,20.09551708984375,2.783549352788925,7.373523273643851,-0.8620271639466285
1682095901641645000,20.11564501953125,2.9701801779031753,5.964573006042838,2.273197445684671
1682095901661773800,20.13577392578125,1.3333750943958758,5.871855559378862,3.4301123958468436
1682095901681902800,20.15590283203125,3.4426726022124288,3.9174306333661075,6.487686779564618
1682095901702030800,20.17603076171875,6.5240159840524194,2.5649136161267756,10.580643491184711
1682095901722159900,20.196159912109376,6.6784454982638355,2.440032267960906,13.254061905694007
1682095901742288000,20.216287841796873,2.20947286927104,2.5039018058031797,12.243732185983657
1682095901762417000,20.2364169921875,-2.1447616199076176,2.9485218883246183,9.803706932285428
1682095901782546000,20.2565458984375,-4.445101924061775,2.6881775922238824,7.003184817385673
1682095901802674200,20.276674072265624,-2.6170108831107615,1.7950787059262394,7.055974742808938
1682095901822803000,20.296802978515625,0.6521803714830428,2.799391065043211,10.061080688142775
1682095901842932000,20.316931884765626,2.2593394545935093,4.274283585107327,10.872491763573885
1682095901863060000,20.33706005859375,2.5564623063847423,8.422526715141535,8.149419383579492
1682095901883189000,20.35718896484375,1.681701186940819,8.240981814989446,7.929683576720953
1682095901903317000,20.37731689453125,-0.18720818661078809,8.844377916494011,6.997050844675302
1682095901923446000,20.397446044921875,-0.9884218392848968,11.353124239718912,4.2073920690953726
1682095901943574800,20.41757470703125,-2.0436920860923826,12.265651756846903,1.7368524346679448
1682095901963703000,20.437703125,0.03368468132838607,12.565049713963269,-0.4211439298659563
1682095901983831800,20.457831787109374,0.07065335276350379,11.767856548976898,-2.3276275395303965
1682095902003959800,20.477959716796875,-1.0002500781141221,10.389737472969292,-4.475070945867896
1682095902024088800,20.4980888671875,-1.3595581679224966,8.483942430090904,-6.225877671608329
1682095902044218000,20.518218017578125,-1.8056243575990198,4.475470758840442,-8.49265823598802
1682095902064345900,20.538345947265626,-1.2880362156309186,0.7773731967508792,-7.459823254480957
1682095902084475100,20.55847509765625,0.39613391870670017,-1.7477239572942256,-5.011856686389446
1682095902104604000,20.57860400390625,0.6915900793947279,-3.6525720747113226,-2.7641128309130667
1682095902124732000,20.59873193359375,-1.2024316697120665,-5.1295671200126405,-1.713949697986245
1682095902144861000,20.61886083984375,-3.530096034121513,-6.1524406794756645,-1.5997037256032227
1682095902164989000,20.638989013671875,-3.533979597556591,-7.986827605700492,-2.7015660661071537
1682095902185118000,20.659117919921876,-1.3029448848187923,-8.998108342525363,-2.552901983554661
1682095902205247000,20.6792470703125,-0.7300770464383065,-9.063438016048073,-0.8582686881959438
1682095902225375000,20.699375,-2.348234858751297,-9.690694885611533,-1.9209791680067776
1682095902245503700,20.719503662109375,-3.299622560149431,-10.733271508932113,-4.883566698823869
1682095902265632500,20.739632568359376,-1.481758314180374,-10.555537106978893,-7.862463559406995
1682095902285760800,20.7597607421875,0.06251812323331833,-5.450962973925471,-7.938811470550299
1682095902305889500,20.7798896484375,-2.062693577551842,-1.9358517429679631,-8.432440790912509
1682095902326017500,20.800017578125,-2.4708956082582474,-1.4925602787017822,-13.260965109211206
1682095902346146600,20.820146484375,-0.7386532977342605,-0.8888035271912813,-16.445196034073827
1682095902366275600,20.840275634765625,1.6438906578540802,2.9270179125249385,-16.316961283826828
1682095902386403600,20.860403564453126,0.567625699943304,6.687011082035303,-13.900517396724224
1682095902406532600,20.88053271484375,-2.745304085546732,7.605914563935995,-13.095209898865223
1682095902426660600,20.90066064453125,-3.0055437522292134,6.846275761318206,-12.778954330450295
1682095902446789400,20.920789306640625,-1.7324270194411278,5.438191755157709,-8.646666894438862
1682095902466918400,20.94091845703125,-0.7175333528161049,4.095409365469217,-3.4325083510726686
1682095902487046400,20.96104638671875,-0.35974984222650525,3.5897207740008827,-0.03321720994710922
1682095902507175700,20.98117578125,-1.0518809696953744,3.3756431390345094,1.4094044411092996
1682095902527304700,21.0013046875,0.43314938842561096,2.0574843184709546,0.7674485995858907
1682095902547432700,21.0214326171875,3.0566379796504974,1.0418237591266633,2.999679244109988
1682095902567561700,21.041561767578123,4.970124161553382,3.79592080745995,10.117671759414673
1682095902587689700,21.061689697265624,2.668912919783592,5.33522237907052,14.272680145800113
1682095902607818500,21.081818603515625,-0.27669753807373343,4.473101691621542,11.391454847157
1682095902627947500,21.101947509765626,-2.6407635146200654,3.2806749908342954,8.250193295449018
1682095902648075500,21.122075439453123,0.3443499554555863,5.441612377256154,13.342095578455924
1682095902668204500,21.14220458984375,1.74691380995512,7.647365933743119,17.18444554413557
1682095902688333600,21.16233349609375,3.0360195545136928,11.488575497215985,14.289474628734588
1682095902708461600,21.182461669921874,1.8225486043930053,11.553769561660289,10.36680434114933
1682095902728590600,21.202590576171875,-0.5772339246354997,8.53848182953,4.257704206228256
1682095902748718600,21.222718505859376,1.4491279642105102,11.784358770966529,3.3107962805926796
1682095902768847400,21.242847412109374,0.8983914397478103,14.060171367585658,2.5417092661499976
1682095902788976600,21.2629765625,-0.4123402995549142,14.868305613303184,0.6097960316747426
1682095902809104600,21.283104736328124,-2.2316915692113337,13.884970283502339,-0.03787351132035255
1682095902829233700,21.303233642578125,-0.7888077600874006,12.666582335245609,-1.5870523338228464
1682095902849361700,21.323361572265625,1.267353346955776,10.377622672283648,-2.4428525860786436
1682095902869490700,21.34349072265625,1.8861340645968914,7.6863868615329265,-3.9520717386364934
1682095902889619700,21.36361962890625,0.2753670931875706,4.991598326736688,-6.649693451032042
1682095902909747700,21.383747802734376,-0.8441711892604827,0.9504846150785684,-8.270897060781717
1682095902929876500,21.40387646484375,-0.7455505099020898,-2.0515204416304824,-7.263640757167339
1682095902950005500,21.424005615234375,0.057205769104138014,-4.3933477714270355,-4.879719960267842
1682095902970133500,21.444133544921876,-0.6979308997888117,-6.549867049145698,-3.8486268539920445
1682095902990262500,21.464262451171876,-2.41747249949798,-8.720967225402593,-5.418441345027089
1682095903010390500,21.484390625,-3.4763667820215223,-10.36128294737935,-7.2390569355309005
1682095903030519600,21.50451953125,-1.953654380031675,-11.310676260089874,-6.964439199405908
1682095903050648600,21.524648681640624,-0.36844277870468795,-11.51687687807083,-6.165416480904817
1682095903070776600,21.544776611328125,0.3729785955034196,-10.702927808594703,-6.812935801774263
1682095903090905600,21.564905517578126,0.9676502694129944,-8.307135079854726,-10.149356352967024
1682095903111034600,21.58503466796875,-0.392683047600463,-4.809336802747845,-11.94963467336297
1682095903131162600,21.60516259765625,-3.6769349470734594,-3.0883336791187523,-10.916856975001096
1682095903151291600,21.625291748046877,-3.7120039223670958,-0.9404904598087072,-11.322595830464362
1682095903171419600,21.645419677734374,-2.5905168439388273,0.39706396609842776,-10.084307249951362
1682095903191548700,21.665548583984375,-1.2439783165872096,4.159745351779461,-11.180546489876509
1682095903211677400,21.685677490234376,-0.9534837968945503,6.8712459519237274,-13.466028247594833
1682095903231805400,21.705805419921877,-1.5040800361037254,6.779007813209295,-13.209411447584628
1682095903251934700,21.725934814453126,-2.077484319448471,6.140982296872139,-11.3832481598258
1682095903272062700,21.746062744140627,-3.141709295475483,5.281240613514185,-8.514700556448101
1682095903292191700,21.766191650390624,-3.527727551424503,4.144503358983993,-5.722407340711355
1682095903312321000,21.786321044921873,-3.4657565406799313,3.217614723548293,-3.711915659561753
1682095903332448800,21.80644873046875,-2.600333304554224,3.4446178910613057,0.2610568282842636
1682095903352578000,21.826578125,0.29379473028182984,2.7554712592959403,4.538067208006978
1682095903372706800,21.846706787109376,3.7673236585289236,1.1675620163828133,6.831528274041414
1682095903392834800,21.866834716796873,3.443258293145895,0.6556850916683673,6.516419537574053
1682095903412963800,21.8869638671875,1.669063093033433,1.5358488008081912,6.808840056893229
1682095903433091800,21.907091796875,2.078330707144737,4.344344086544216,12.364370489752291
1682095903453220900,21.927220947265624,2.2768735038489103,4.426454214476049,14.8041929143548
1682095903473350000,21.947349853515625,1.5387357544213534,3.6930896707996723,12.443601262855529
1682095903493478000,21.967477783203126,0.004366378515958786,2.8483646470487116,7.813549598634243
1682095903513607000,21.98760693359375,3.7054736438155174,7.756049011301994,10.674750346380472
1682095903533735000,22.00773486328125,8.299336388802528,12.246470086514949,14.853996517443656
1682095903553863700,22.02786376953125,8.142844681364297,11.1268125616014,13.496335707575081
1682095903573992700,22.04799267578125,3.78297773925662,11.95224514812231,6.754616883796453
1682095903594120700,22.06812060546875,0.42998248535990713,12.987487190771102,1.5438345388650894
1682095903614250000,22.08825,-1.6802691083110868,14.210906703454254,-1.2414485058486462
1682095903634379000,22.10837890625,-1.5469371810555457,14.822161117243766,-1.0286731856524944
1682095903654507000,22.128507080078126,0.27997663280963897,13.28412035934925,-1.5838924084872006
1682095903674635800,22.1486357421875,2.0871312687158583,11.322822624957562,-4.347766169947386
1682095903694763800,22.168763671875,2.986472848795354,7.175308978241682,-8.84811242684722
1682095903714892800,22.188892822265625,2.1463852755866943,3.1309394796580072,-8.659967105516792
1682095903735021800,22.209021728515626,0.3377636358678341,0.11549392661750316,-6.004373686033487
1682095903755149800,22.22914990234375,-1.7379541122995317,-1.7969021219611168,-4.1644852397829295
1682095903775278800,22.24927880859375,-3.0511575024127957,-3.007816957858205,-2.6758777903601527
1682095903795408000,22.269407958984374,-3.7752211337804793,-5.508437257772684,-3.0990982342392206
1682095903815535900,22.289535888671875,-3.4493723921120165,-7.253831310814618,-3.601132687114179
1682095903835664600,22.30966455078125,-2.7754151461720467,-8.215167574775219,-3.4942832547232507
1682095903855792600,22.329792724609376,-1.521969913059473,-8.572155551072955,-4.020778779637813
1682095903875921700,22.349921630859374,-1.1866391303617507,-9.171784993520378,-4.68390600400567
1682095903896051000,22.370051025390627,-1.376639066582918,-9.988571916770935,-6.57369976015389
1682095903916179000,22.390178955078124,-1.5259144129015505,-10.472462517929076,-9.200646930867434
1682095903936308000,22.410307861328125,-1.3314566935539245,-7.8963734277933835,-11.504729344159363
1682095903956437000,22.43043701171875,-1.4431822075486183,-2.654198165732622,-12.303648017764091
1682095903976565000,22.45056494140625,-2.682665550804138,-2.1211691473960874,-14.40756558610797
1682095903996693800,22.47069384765625,-2.1007366002202033,-1.6343799021869896,-18.04465718309283
1682095904016821800,22.49082177734375,-1.6480197204828262,2.4100386962354183,-19.357000010854005
1682095904036950800,22.51095068359375,-0.971953519564867,8.076590294212103,-18.05946896777749
1682095904057079800,22.531079833984375,-1.0243442165374754,10.574437037760019,-15.968344245511293
1682095904077207800,22.551207763671876,-0.7606617159247397,9.75400035983026,-13.188387364256382
1682095904097336800,22.5713369140625,-0.8443091364264488,8.805975412863493,-9.073891021001339
1682095904117465900,22.5914658203125,-0.6217302150964736,8.200666171213983,-2.9088170699238773
1682095904137593900,22.61159375,-0.6823672738235443,7.714052867093682,1.4103712403148412
1682095904157722600,22.63172265625,-3.0264076765596863,6.29732436670661,3.7979718947708605
1682095904177850600,22.6518505859375,-3.1893162653028964,4.6381396936088795,4.621301371532678
1682095904197980000,22.67197998046875,0.2903039655566215,3.370017700368166,8.83151434326768
1682095904218109000,22.69210888671875,4.416044171881675,5.148192910027504,11.052912628132104
1682095904238237000,22.71223681640625,6.417620140647887,3.442238302448392,11.09598370809555
1682095904258366200,22.7323662109375,6.49128275822997,2.9489731392234564,12.605092970538138
1682095904278494200,22.752494140625,5.2294443753033875,3.247455150538683,10.989878956592083
1682095904298623200,22.772623291015623,-0.04594100937657058,2.9209397616550326,7.671396797671914
1682095904318752300,22.792752197265624,-3.5921593993246552,3.611669863219559,7.17305447731316
1682095904338880300,22.81288037109375,2.820968106079101,9.313416400957108,10.817447337222099
1682095904359009300,22.83300927734375,9.738526311844586,12.732268567121029,13.749040887099504
1682095904379138300,22.85313818359375,9.872469502866268,10.08733273525238,14.128679671144484
1682095904399266300,22.873266357421876,4.078113362753391,11.893147646987437,8.227764606019853
1682095904419395300,22.893395263671874,-0.2756324843917973,12.64599079811573,2.387557984358072
1682095904439523300,22.9135234375,-1.382349845445156,12.330575772178172,-2.813669181242585
1682095904459652000,22.933652099609375,0.8084441153842955,11.902511687660217,-2.687387903150916
1682095904479781000,22.953781005859376,0.526743069934845,11.382671821242571,-2.113915230745077
1682095904499909000,22.9739091796875,-0.25924254540391267,10.355436559438704,-3.2284646188646553
1682095904520038100,22.9940380859375,-0.30355273870825766,8.777387031760812,-4.556504197451472
1682095904540167200,23.014167236328124,0.679555796599388,4.634420965346694,-7.166436520478129
1682095904560295200,23.034295166015625,1.111382010129839,-1.0418208365172148,-8.03190885644257
1682095904580424200,23.054424072265626,0.5669358910482376,-4.1399323978066445,-5.1823377562135455
1682095904600552400,23.074552490234375,-0.3985493092853576,-5.1274277698963875,-1.926086720278859
1682095904620681200,23.09468115234375,-2.2317980983257293,-5.843918335661292,-0.42535541008114813
1682095904640810200,23.114810302734377,-2.8272330116927624,-6.773530258581042,-1.061792780444026
1682095904660938200,23.134938232421874,-1.468293267929554,-8.387020517474413,-2.7868405032888055
1682095904681067300,23.1550673828125,-0.4129272691300139,-9.257408682531118,-3.448470182575285
1682095904701195300,23.1751953125,-1.0410895996332168,-8.69574159873128,-4.060244820846617
1682095904721324300,23.19532421875,-2.2955811269283295,-9.167647163063288,-6.5040995697051285
1682095904741453000,23.215453125,-2.2862241005182264,-10.52717376680374,-10.52189670318365
1682095904761581000,23.2355810546875,0.9032207596004008,-7.614057538381219,-12.473672575992346
1682095904781710000,23.2557099609375,-0.3635176337948069,-3.1212066056728363,-12.237397137743233
1682095904801839000,23.275839111328125,-3.8718028546571728,-1.7836872510790824,-13.834658146369456
1682095904821967000,23.295967041015626,-3.1392589797139165,-1.8040975864231585,-16.082350563919544
1682095904842096000,23.31609619140625,-1.6288076550126074,0.3632908758342266,-16.166322978591918
1682095904862224100,23.33622412109375,-0.05601823982000351,6.629532706534862,-14.109773895144462
1682095904882353400,23.356353515625,0.07974981940812431,9.356879695108532,-12.17447803249359
1682095904902482200,23.376482177734374,0.31826164754033087,8.810581445354222,-11.944073532104492
1682095904922610200,23.396610107421875,-0.3526139259319752,7.943397629296779,-11.131563555520772
1682095904942739200,23.4167392578125,-2.2707518060982226,8.924449816596507,-6.986403193932771
1682095904962867200,23.4368671875,-3.619581659257412,8.748912632426618,-1.8947522553384304
1682095904982996200,23.456996337890626,-3.214988466697931,6.88787793777287,1.1046136850386858
1682095905003125200,23.477125244140623,-2.4721394708395,4.576912779229879,3.2168390630006787
1682095905023253200,23.497253173828124,-0.300512055838108,3.3800106865942476,6.995452177307009
1682095905043382300,23.51738232421875,1.9249498252034185,4.190809183084965,10.758338145649432
1682095905063511000,23.537510986328126,0.9625345338344573,4.029063208380341,12.409086414313316
1682095905083639000,23.55763916015625,-0.2585409730058163,3.1724113077312706,11.167136388683318
1682095905103768000,23.57776806640625,-0.7667804180007427,1.5931804613143206,9.874020823961496
1682095905123896000,23.59789599609375,1.8711247115135192,3.394911026345193,11.765351288157701
1682095905144025000,23.618025146484374,2.7386872977554795,4.427076145766676,12.677625122785567
1682095905164154400,23.638154296875,0.9925906494021415,4.967877259409427,11.505040309804677
1682095905184282400,23.658282470703124,0.08552373576760292,7.56278620082736,7.313295307174324
1682095905204411400,23.678411376953125,0.9976432566165924,7.875761432397365,7.917768682521581
1682095905224540200,23.6985400390625,3.0967092932760716,9.444470884799957,10.89156120570302
1682095905244668200,23.718668212890623,3.921234701824188,12.789329593992232,9.926000017523766
1682095905264797200,23.738797119140624,0.3325064459919929,13.426016555202006,6.54659957178235
1682095905284925200,23.75892529296875,-2.001702225494385,13.22720078677535,1.2393570865273476
1682095905305054200,23.77905419921875,-2.055705033838749,11.664557502543925,-2.1180682587713
1682095905325183200,23.799183349609375,-0.1102628940962255,10.88980647099018,-2.548012165686488
1682095905345311200,23.819311279296876,1.0849522683657704,9.745694888299703,-2.1528554945141076
1682095905365440300,23.839440185546874,0.5903892473500222,7.788463672694563,-3.661856620407104
1682095905385568300,23.859568359375,0.478361024081707,4.10012353450954,-6.670801705512404
1682095905405697000,23.879697021484375,1.2450690344333648,-1.0439572640240191,-7.961378107145428
1682095905425826300,23.899826416015625,1.0960999775849283,-3.859864579582214,-5.778550668215751
1682095905445954300,23.919954345703125,-1.1176818409264087,-4.435312351453304,-2.8933909527331587
1682095905466083300,23.940083251953126,-3.393357659423351,-4.603768637451529,-2.0678823783665896
1682095905486212400,23.96021240234375,-4.778403319823742,-6.225649708071351,-2.249606142216921
1682095905506340400,23.98034033203125,-4.282877225929498,-8.039176217097044,-3.115098936447501
1682095905526469000,24.00046923828125,-3.599530220353603,-9.231337837207317,-3.413962348295748
1682095905546597000,24.02059716796875,-3.8728140775263307,-9.428009579342604,-3.9346369119718667
1682095905566726100,24.04072607421875,-4.191902239018678,-10.383881732678413,-6.536562161892652
1682095905586855200,24.060855224609377,-2.6085247943162915,-11.476553050988912,-8.763556659328938
1682095905606983200,24.080983154296874,0.6623217532038689,-8.357609129551053,-8.58814748545289
1682095905627112200,24.1011123046875,1.6041408312678336,-3.4639667346537113,-8.251022147488593
1682095905647240200,24.121240234375,-0.709272889471054,-1.5050865827977657,-11.050787306541205
1682095905667369200,24.141369140625,-1.1224106230139732,-1.6348808374464512,-15.291013139224052
1682095905687498000,24.161498046875,0.7578782226860523,1.670099450343847,-16.849734281575678
1682095905707626000,24.1816259765625,2.3844348839014766,4.975674781417847,-15.730537359911203
1682095905727755300,24.20175537109375,1.054134959167242,7.307934656924009,-13.240262512922286
1682095905747884300,24.22188427734375,-1.402937875443697,9.633461424782872,-13.578042515403032
1682095905768012300,24.24201220703125,-3.227372147452831,8.354567862159014,-13.015192359298467
1682095905788141300,24.262141357421875,-2.9944121173620224,7.194998013573884,-9.244334096902609
1682095905808269300,24.282269287109376,-1.4741244583010673,5.592535929173231,-4.403664582780003
1682095905828398300,24.3023984375,-0.39323129260037093,4.814759996840357,-0.5274971031725406
1682095905848527000,24.322527099609374,-0.4684452678103,3.8372505967140196,0.7966384537130594
1682095905868655000,24.342655029296875,-1.67425306289196,2.921134699705243,1.220759938085079
1682095905888784100,24.3627841796875,-0.26706688235402104,2.9379519789934156,5.777296868762374
1682095905908913200,24.3829130859375,2.3624960238158703,4.185833732759952,11.055502060103416
1682095905929041200,24.403041259765626,3.6452468463897705,4.147051289901137,12.514969047498703
1682095905949170200,24.423170166015623,1.4012811942778527,3.3034158149525523,9.998976406407357
1682095905969298200,24.443298095703124,-1.1166845735173672,1.9580989383503793,10.93777467534542
1682095905989427200,24.46342724609375,1.1487643769323825,5.522352385878563,16.092776096343993
1682095906009556200,24.48355615234375,3.725388304597139,8.69894711677432,16.209741264557838
1682095906029684200,24.503684326171875,5.719468364650011,12.498098576718569,13.299105162513255
1682095906049813200,24.523813232421876,1.316135351911932,10.548651439118384,11.793020216327905
1682095906069941200,24.543941162109373,-2.97300575671792,10.959542270517348,9.366748178172111
1682095906090070300,24.5640703125,0.5518026923894882,13.818636401373148,8.591587981295586
1682095906110199300,24.58419921875,2.3384135758303106,14.690150355589388,4.138489797782897
1682095906130327300,24.604327392578124,1.4414169514417647,14.050627294170855,0.9783628020852804
1682095906150456000,24.6244560546875,-1.085361433688551,13.955354902327059,0.21808862417340277
1682095906170585000,24.644585205078126,-1.71560944789201,13.876432756781577,0.14392448680996894
1682095906190713000,24.664713134765623,-0.3078688483417034,11.923851412808894,-1.758326015329361
1682095906210842000,24.684842041015624,0.9287211115598678,8.178376013472676,-6.123206986206769
1682095906230970000,24.70497021484375,0.27460969894900916,4.1243864536285395,-7.912188252040743
1682095906251098400,24.725098388671874,-1.4067593334279953,1.2020949851036071,-7.337820676621794
1682095906271227400,24.745227294921875,-2.5682559122920035,-0.3629378246128559,-6.943751216164231
1682095906291355400,24.76535546875,-2.512090372955799,-3.539747659564018,-6.90598701043725
1682095906311484400,24.785484375,-1.3458359320402145,-6.410628674325347,-6.568107054713368
1682095906331613400,24.805613525390626,-1.2789596135973929,-8.31994020089209,-6.507670998451113
1682095906351741400,24.825741455078123,-1.7570425513900816,-9.14076558587849,-8.348706276649237
1682095906371870500,24.845870361328124,-2.263966676002741,-10.654842699861526,-9.916853418993949
1682095906391998500,24.86599853515625,-0.8295148873984813,-11.789677920162678,-10.258418785232305
1682095906412127500,24.88612744140625,0.7889759562611579,-11.310777966898678,-9.381690311238168
1682095906432256500,24.906256591796875,1.358985336470604,-7.295686585247516,-11.06384786364436
1682095906452384500,24.926384521484376,0.007356755970977246,-3.184657625842094,-14.060086027389763
1682095906472513500,24.946513427734374,-1.4787188003540037,-3.951344008883834,-15.142154118621349
1682095906492641500,24.9666416015625,-0.04045125285387039,-1.0598796402990818,-16.01603772457838
1682095906512770300,24.986770263671875,-1.5250550195932386,3.8410499889969825,-14.917840336322783
1682095906532899300,25.0068994140625,-2.0913106002271173,9.765166481488942,-15.351868882203101
1682095906553027300,25.02702734375,-1.9242250180602072,10.124541060662269,-13.734576308417319
1682095906573156400,25.04715625,-0.8895897821981459,10.27627592896223,-12.504945666134356
1682095906593284400,25.067284423828124,-2.5838790133595464,10.805316169923543,-8.807352546435594
1682095906613413600,25.08741357421875,-3.77788655359745,10.555721815896034,-4.887892745329439
1682095906633542700,25.107542724609374,-3.4997476576089857,8.668321092364192,-1.6810440382063387
1682095906653670700,25.127670654296875,-2.5780793871700762,5.645548557436466,-0.8144552654325962
1682095906673799400,25.14779931640625,-1.4175801487803459,3.251466139745712,1.4970879852592944
1682095906693928400,25.167928466796877,0.804699595093727,4.852764441064,8.43217658701837
1682095906714056400,25.188056396484374,1.963991211259365,4.233979047247767,12.151569450592994
1682095906734185500,25.208185546875,1.3441536780416965,2.113677914857864,11.333194381368159
1682095906754313500,25.2283134765625,0.13705284747481344,-0.6776993550777435,11.8915741140604
1682095906774442500,25.2484423828125,3.2119758408784866,3.235304694017768,14.686556715011596
1682095906794571500,25.268571533203126,3.4450188730776308,4.17953375583291,15.831948400640487
1682095906814699500,25.288699462890627,2.791366748541593,4.282772596511244,15.224169554007052
1682095906834828300,25.308828369140624,0.29178386538345363,4.331114018093049,12.317877618646621
1682095906854957300,25.328957275390625,-0.10246676032729446,6.8988523362517356,7.634370258569717
1682095906875085300,25.349085205078126,2.9650352162301536,10.623013144880533,8.474352179446816
1682095906895214600,25.369214599609375,1.4357961889505386,9.723750767517089,9.436149046656489
1682095906915342600,25.389342529296876,-0.858022019958496,12.940409797775745,6.688810824933648
1682095906935471600,25.4094716796875,-2.62648832103014,13.319271167707443,3.961801690012216
1682095906955600400,25.429600341796874,-0.2755097165286541,13.963366359347104,-0.771689305895567
1682095906975728400,25.449728271484375,1.843175358966738,13.26531979728937,-1.774551173943281
1682095906995857400,25.469857421875,1.789978021786362,12.52716918838024,-1.6441647986203431
1682095907015985400,25.4899853515625,1.2704254478774963,10.192944150280951,-2.953177020654082
