time,seconds_elapsed,z,y,x
1684451008216064500,0.090064453125,0.07025017879009246,0.008768257603561504,0.0014404902650509029
1684451008226075400,0.100075439453125,0.06093932960927486,-0.0019938589646480978,-0.004037813281873241
1684451008236087600,0.110087646484375,0.0685626640945673,0.0016523977163713423,-0.006414735013665631
1684451008246098400,0.120098388671875,0.06097381640076637,-0.0022086981585714965,0.0005819828727282584
1684451008256110300,0.1301103515625,0.0573866055637598,0.011018881507986224,-0.0027228125600144266
1684451008266121500,0.14012158203125,0.06007423721253872,-0.0007793320757336914,0.0013856182726565748
1684451008276132600,0.150132568359375,0.060218029597401614,0.005406361688720062,0.00004359254655428231
1684451008286144500,0.16014453125,0.06726210289001465,-0.0008917794742621481,0.0034216998106800017
1684451008296155400,0.1701552734375,0.07654314145445823,0.0032351459963247176,0.006022895285021514
1684451008306167600,0.18016748046875,0.06546703616678715,-0.00295673548032064,-0.0024602161010727286
1684451008316178700,0.1901787109375,0.06382336061298848,-0.010702906327415256,-0.000047328006755560634
1684451008326189600,0.200189453125,0.05693535466492176,-0.0004845686465501785,0.004800212489115074
1684451008336201500,0.210201416015625,0.05424830753803253,0.0026381984499050304,0.0007674863743130117
1684451008346212400,0.22021240234375,0.06486907027363777,-0.0027166522472864014,0.0037086452595889567
1684451008356224500,0.230224609375,0.05648994898498058,-0.005428463922673836,0.0013103793456684797
1684451008366235400,0.2402353515625,0.06008066695332527,-0.004036046016472392,0.009441617687325925
1684451008376246500,0.25024658203125,0.053285599985718725,0.0011987904636655002,-0.0010204473552294076
1684451008386258700,0.2602587890625,0.06079787531197071,0.002948200547415763,-0.0033411179882939903
1684451008396269600,0.27026953125,0.07080898171663284,0.006627450749161653,0.0033901630281005053
1684451008406281500,0.280281494140625,0.06930676046013831,-0.0018607112713856621,-0.0058839434720575805
1684451008416292400,0.290292236328125,0.0536047489374876,-0.003533676851750351,0.0065907765671610824
1684451008426304500,0.300304443359375,0.058387307038903234,0.0002724693989846855,-0.004714516100194305
1684451008436315600,0.310315673828125,0.07409808638989925,-0.00431540638054721,-0.0059113794682547445
1684451008446326500,0.320326416015625,0.07363748314082622,0.002819623997993767,-0.0031049985443241893
1684451008456334000,0.330333984375,0.06451134287714957,0.007864038772834465,0.0067203029646538195
1684451008466345200,0.34034521484375,0.06736264065504073,0.004410815879306756,-0.003626437735697254
1684451008476357000,0.350357177734375,0.053446928027272224,0.0006351012994535266,-0.0027822145970538255
1684451008486368300,0.3603681640625,0.06272972015738487,-0.007807221418526023,-0.004708871810697019
1684451008496379100,0.370379150390625,0.07499415844678878,-0.008689365414762869,-0.0004878017832525074
1684451008506391300,0.380391357421875,0.0729021546036005,-0.001407601775601506,0.0005762746511492878
1684451008516402200,0.390402099609375,0.07185702946484089,0.0012985564771341158,-0.005151318348571658
1684451008526414000,0.4004140625,0.07200783611238003,-0.0013090459051076323,-0.0008015165080782025
1684451008536425200,0.41042529296875,0.07050795294344425,-0.00901118124765344,-0.001815881182393059
1684451008546437400,0.420437255859375,0.05883972698152065,-0.00008528996354434639,0.0024792678614147007
1684451008556448300,0.4304482421875,0.05884148054718971,0.005431907121930271,0.0020806878647301346
1684451008566459100,0.440459228515625,0.07245967153310776,-0.007532345433323644,-0.007535601402912289
1684451008576471000,0.450470947265625,0.0717085609048605,0.006416611876920796,-0.009163038207963109
1684451008586482200,0.460482177734375,0.06721884827017784,0.006775037959730252,-0.001539849853143096
1684451008596494000,0.470494140625,0.06811959650218487,-0.0016710384847596286,-0.003395725119207054
1684451008606505200,0.480505126953125,0.05300561400055885,0.000923896212154068,-0.004809281711559742
1684451008616516000,0.49051611328125,0.056444940799474715,0.003871475705062039,-0.010138267315132543
1684451008626528300,0.5005283203125,0.06721884827017784,0.006581985905929468,-0.0019239172672852873
1684451008636539100,0.5105390625,0.06886486191153526,0.00033996341093443333,-0.00182274018144235
1684451008646551000,0.520551025390625,0.0669195730626583,-0.005849013722571544,0.00007121120584197342
1684451008656562200,0.530562255859375,0.07156359947621822,0.0021526114566251635,-0.0003109656453132629
1684451008666573300,0.5405732421875,0.058846156722307204,0.0014705748760607093,-0.0015206062965560704
1684451008676585200,0.550585205078125,0.05824702178537845,0.003400839685741812,-0.008513707453757523
1684451008686596000,0.56059619140625,0.0643839171051979,0.006836965313996188,-0.008012744794832542
1684451008696608300,0.570608154296875,0.06453530827462672,-0.0029312357128830624,-0.003956756535451859
1684451008706619100,0.580619140625,0.06184124688506126,-0.0003381276468746364,-0.004965696115978062
1684451008716631300,0.59063134765625,0.06199380709826946,0.0008898341123480349,0.0010955858175177126
1684451008726642200,0.60064208984375,0.05840075104236602,0.0005809736591530963,-0.0015237115690950303
1684451008736653000,0.610653076171875,0.06483458348214625,0.007937565233348869,-0.007466143762739375
1684451008746665200,0.620665283203125,0.0670809011042118,-0.006125793970492668,-0.0011167838691733777
1684451008756676000,0.630676025390625,0.06783084268867969,0.0016707462238147854,0.004898613095982
1684451008766688000,0.64068798828125,0.0605021072357893,0.003676665519014932,-0.00417860085889697
1684451008776699400,0.650699462890625,0.06020458559393883,0.004440612795948982,0.002527006860123947
1684451008786710300,0.660710205078125,0.06394494116604328,0.00963948748013936,0.005382734217960387
1684451008796722200,0.67072216796875,0.06230009656846523,0.005370208096527494,0.006627500981511548
1684451008806733000,0.680733154296875,0.06140343998968601,-0.0007484528802800923,-0.0010033318236470222
1684451008816745200,0.6907451171875,0.06769172647893429,0.003794300549314357,0.00013129822947084902
1684451008826756400,0.70075634765625,0.06380114878118037,0.00601133271139115,0.002041798892756924
1684451008836768300,0.710768310546875,0.061255555951595306,0.0021496386148268354,-0.003449866459239274
1684451008846779100,0.720779052734375,0.0652986938625574,0.006576871339394711,0.0019089114943984895
1684451008856790300,0.730790283203125,0.06081073479354381,0.011918857988435774,-0.0015833510681521146
1684451008866802200,0.74080224609375,0.068593059232831,0.002668922381731681,-0.003370070088142529
1684451008876813000,0.75081298828125,0.06784253312647343,-0.0008350808509625494,0.004727969236811623
1684451008886825000,0.760824951171875,0.06290390768051148,-0.0007451375451870263,-0.004106439804984256
1684451008896836400,0.77083642578125,0.06185469088852405,-0.006093681799178011,-0.0003333692733664065
1684451008906847200,0.78084716796875,0.06335048240423202,0.0028975115397945044,0.0009713657828047871
1684451008916859100,0.790859130859375,0.06709317606389523,-0.00805605878017377,-0.0036070754481013862
1684451008926870000,0.8008701171875,0.06260346342921257,-0.0015495218637865036,-0.005193431324092671
1684451008936882200,0.810882080078125,0.06904080300033093,0.0005121873058378696,-0.004924350325437262
1684451008946893300,0.820893310546875,0.05991524725854396,-0.003462232750467956,-0.0038727315138094125
1684451008956904200,0.830904296875,0.0615606763780117,0.00009980711266398429,0.004713255724869668
1684451008966916000,0.840916015625,0.06784662477970123,0.0006750542839290574,0.002530577923543751
1684451008976927200,0.85092724609375,0.07667407435774802,-0.0001628395786276087,0.0005046524533536285
1684451008986939100,0.860939208984375,0.07128653610050678,0.0011050477656070143,-0.004139346560742706
1684451008996950300,0.8709501953125,0.0732289023399353,0.0000768554953392595,0.0005812339540570974
1684451009006962200,0.880962158203125,0.06529810934066772,0.00013565931075718254,-0.0021436335657257586
1684451009016973300,0.890973388671875,0.06784311764836311,0.00003754183168057352,0.004359683913690969
1684451009026984200,0.900984130859375,0.07293079617619513,0.0016995339268818497,-0.0014543726599309593
1684451009036996000,0.91099609375,0.06440028371810913,0.0035643003188772127,0.0026634105229750276
1684451009047007000,0.921007080078125,0.07263035192489624,-0.00042897056837100535,-0.006584867416182532
1684451009057019100,0.93101904296875,0.07218085459172725,0.0022664470946416257,-0.0025099917932413516
1684451009067030300,0.9410302734375,0.07053425642848014,-0.0010321514927549287,-0.0037873730516061184
1684451009077041200,0.951041259765625,0.07412438987493515,0.0004645853044465184,-0.0002570617672987282
1684451009087053300,0.96105322265625,0.07158171965479851,-0.004118870028294623,-0.005379756809584796
1684451009097064200,0.971064208984375,0.06185469088852405,-0.005224493182636797,0.0005282342583406716
1684451009107076000,0.981076171875,0.06110708739161491,-0.0034014561736723406,0.001923414943786338
1684451009117087200,0.991087158203125,0.061255555951595306,0.004495617219083942,-0.0020770620023831724
1684451009127098000,1.00109814453125,0.06454758323431015,0.006088745329156518,-0.00027720950618386267
1684451009137110300,1.0111103515625,0.06110474930405616,0.002166886577149853,-0.008094513927306979
1684451009147121200,1.02112109375,0.06185235280096531,0.0022417236453387886,0.00010229133069515228
1684451009157133000,1.031133056640625,0.056612698581814766,-0.0038836456334684043,-0.0049456488417927175
1684451009167144200,1.041144287109375,0.06768412769436837,0.0048559155985713,0.00033763445653021333
1684451009177156000,1.051156005859375,0.06888064400255679,0.0026701690573245284,-0.00005984042845666408
1684451009187167200,1.061167236328125,0.0658873074054718,-0.0025803627488669005,-0.0030225444252602756
1684451009197178000,1.07117822265625,0.05750993968248367,-0.0021042742362944408,-0.004030616356106475
1684451009207190300,1.081190185546875,0.06259878725409507,0.005298298204364255,-0.007228763943444937
1684451009217201200,1.091201171875,0.06888590469956397,-0.0063378201528219505,0.0011951828676275908
1684451009227213000,1.101213134765625,0.07068214046657086,0.0057858305595582344,0.001692473998432979
1684451009237224200,1.11122412109375,0.06245031869411468,0.0017355231222929432,0.006113377446914091
1684451009247235300,1.1212353515625,0.06274959390163422,-0.0019331097873160614,0.00876521626310423
1684451009257247200,1.131247314453125,0.06559446193873882,0.007967302784486673,-0.00011855747890658676
1684451009267258000,1.141258056640625,0.07008534361720084,-0.001752419458166696,-0.008280218358291312
1684451009277270000,1.15127001953125,0.07352408589422703,0.0002678023570217192,-0.006510605736728757
1684451009287281200,1.16128125,0.06709142249822617,0.005858407172001898,0.0034698863339610395
1684451009297292300,1.171292236328125,0.06679156276881694,-0.0010409923863364382,0.004500425824942067
1684451009307304200,1.18130419921875,0.07472177124619483,-0.0007635317184031009,-0.006603645181888714
1684451009317315000,1.191315185546875,0.06663841803371906,-0.011732194576226174,0.0014723467080388218
1684451009327327200,1.2013271484375,0.07531330739855766,-0.0005912849906133487,-0.0016558683150913564
1684451009337338000,1.211338134765625,0.059302668318152424,0.0031387546834535894,-0.0032616138781420886
1684451009347349200,1.221349365234375,0.0651373658210039,0.008531106113130226,0.00792800738713704
1684451009357361200,1.231361083984375,0.0640881490290165,-0.0001128903565229848,0.000928476489149034
1684451009367372300,1.241372314453125,0.06229366682767868,0.006827617530338466,-0.002551301051164046
1684451009377384200,1.25138427734375,0.06932371159493923,0.006957029763399623,-0.005936568708438426
1684451009387395000,1.26139501953125,0.07530980026721953,0.001929086632747203,-0.006160321861179545
1684451009397407200,1.2714072265625,0.07216682606637477,0.005687247289600782,-0.003115994862373918
1684451009407418400,1.28141845703125,0.06558160245716571,0.005735552543890662,0.0028005448381882157
1684451009417429200,1.29142919921875,0.0646849458783865,0.0011145462463144212,-0.007372702458780259
1684451009427441200,1.301441162109375,0.06977087084054946,-0.0021076489368919283,0.00007834419952705501
1684451009437452000,1.3114521484375,0.051963995993137356,0.007112275124038569,0.00018853570888750253
1684451009447464200,1.321464111328125,0.06558335602283477,-0.002031455595255829,-0.001496914893714711
1684451009457476400,1.331476318359375,0.07216799511015415,0.0024368763246806337,-0.0007170530950184911
1684451009467487200,1.3414873046875,0.054663318079710005,-0.0024699200777569784,-0.004651058942545205
1684451009477499100,1.3514990234375,0.0661877516567707,-0.0010911334046861156,0.0002947451628744602
1684451009487510300,1.36151025390625,0.06499065082669257,0.007478423289000056,-0.006346665612980723
1684451009497522400,1.3715224609375,0.05631342337429523,0.0034421398105099793,-0.00029136589569970963
1684451009507533300,1.381533203125,0.07187514964342116,-0.001120364065747708,-0.0038961580551695077
1684451009517545200,1.391545166015625,0.06304477745592593,0.012839868123759516,-0.004400627845432609
1684451009527556400,1.401556396484375,0.06873100639879703,0.0016620468941284342,-0.004078401020588353
1684451009537567500,1.4115673828125,0.0625929420351982,-0.006598101357091218,-0.002886606553290039
1684451009547579400,1.421579345703125,0.0691764120787382,0.007647532778210006,0.002957233237242326
1684451009557590300,1.43159033203125,0.07501286314725876,0.0030118540678871794,0.0018114698687568306
1684451009567602400,1.4416025390625,0.0658873074054718,0.0033846009369939566,-0.001891713764425367
1684451009577613300,1.45161328125,0.05810790557563304,-0.000005493592447601258,-0.00541292842682451
1684451009587624200,1.461624267578125,0.06349427478909492,0.0029442595912376416,-0.0008414831922855228
1684451009597636000,1.471635986328125,0.06813245598375797,0.002973280189745128,-0.00011413703211583196
1684451009607647500,1.4816474609375,0.05750818611681461,0.0034898879423737525,-0.0006502714691217988
1684451009617659400,1.491659423828125,0.06753449009060859,0.0020392735755303875,-0.001801304667769
1684451009627670300,1.501670166015625,0.07022738243639469,-0.0014821465828455983,-0.004647460479661822
1684451009637681200,1.51168115234375,0.06648468877673148,0.002844160217628814,0.0063421173020265995
1684451009647693300,1.521693359375,0.06693301706612109,0.006599914288264699,-0.0035914029549341648
1684451009657704400,1.531704345703125,0.0648375060915947,-0.007168393792025745,0.0037120610593818124
1684451009667716400,1.54171630859375,0.06378770477771759,-0.003263385710120201,0.003678222721861675
1684451009677727200,1.551727294921875,0.05929974570870399,0.0015406946699367836,0.00031638160594739016
1684451009687738400,1.56173828125,0.05899988597929477,0.006401217944966629,-0.0037051472614053633
1684451009697750300,1.571750244140625,0.06902618995308876,0.011108317923685536,-0.002572553901746869
1684451009707761400,1.581761474609375,0.05899988597929477,0.008457483754493296,-0.00011260266215540468
1684451009717773300,1.591773193359375,0.0742611679971218,-0.0036943062069825826,0.0004925053578335791
1684451009727784400,1.601784423828125,0.07396247731149196,0.0003072849840391427,-0.0015925572879146783
1684451009737796400,1.61179638671875,0.061091305300593375,0.009511605050461365,0.0037359716579318043
1684451009747807200,1.62180712890625,0.06363339099884033,0.01053972425549291,0.004379676388949156
1684451009757818000,1.631818115234375,0.06423077237010001,-0.0015448091560509056,-0.003306740794656798
1684451009767830300,1.641830322265625,0.06782265938222408,0.004552320408960804,0.000529512899974361
1684451009777841400,1.65184130859375,0.07351064189076423,0.004908321639243513,0.005645887799328193
1684451009787853300,1.661853271484375,0.06438567067086697,0.0031836213050642982,0.000041912046121433375
1684451009797864200,1.6718642578125,0.06842530145049094,0.0003534759130561724,0.002362345217168331
1684451009807875300,1.681875244140625,0.0759083506822586,0.0044736885150661685,0.0000803078277502209
1684451009817887200,1.69188720703125,0.07216741058826447,-0.0018274300562916323,0.002325858264835551
1684451009827898400,1.7018984375,0.07037351290881633,0.00219171049115248,-0.0024541608196217567
1684451009837910500,1.71191064453125,0.06319207697212696,0.0009044014938175678,-0.0026117534009739755
1684451009847921400,1.72192138671875,0.06723346131742,-0.00011162541462108492,0.0009646620473824441
1684451009857932300,1.731932373046875,0.06364274334907531,-0.00045841129198670384,0.003575575198139995
1684451009867944200,1.741944091796875,0.06903028160631657,0.0035986409798962993,0.004285111706983298
1684451009877955300,1.751955322265625,0.06259528012275696,0.003368668148922734,0.0011562299635726957
1684451009887967200,1.76196728515625,0.05915303071439266,0.0021426015192642805,-0.0006315393691882491
1684451009897978400,1.771978271484375,0.07785714666247368,0.005652043545478954,0.0011607508750632405
1684451009907990300,1.781990234375,0.07172025134265422,0.007244847428565845,0.0032357305182144046
1684451009918001400,1.79200146484375,0.06588555383980274,0.005466252349526621,-0.008492052744375542
1684451009928012300,1.80201220703125,0.07516074718534946,0.0065531662368215615,-0.0008713029418140649
1684451009938024200,1.812024169921875,0.0720177729845047,0.013837404960859567,0.0027757391904946415
1684451009948035300,1.822035400390625,0.05915010810494423,0.009165718788816593,0.0008992777941282838
1684451009958047500,1.832047607421875,0.06678279494047165,0.0003486855735071003,0.007235084086377173
1684451009968058400,1.842058349609375,0.06259528012275696,-0.004319703529751859,-0.002750102425739169
1684451009978069200,1.8520693359375,0.05780687680244445,0.0021067036553984505,-0.005033381924172863
1684451009988081200,1.8620810546875,0.06588613836169242,0.003938129466795362,-0.00016610468137077987
1684451009998092300,1.87209228515625,0.07037760456204414,0.004688879335438832,0.012156183008803055
1684451010008104400,1.8821044921875,0.06603752953112126,0.001719421370862983,0.00508102045818232
1684451010018115300,1.892115234375,0.07037643551826477,0.00014576971281785516,0.007468006926262751
1684451010028126200,1.902126220703125,0.06319149245023727,-0.003913670878973789,0.00008122114320285618
1684451010038138400,1.912138427734375,0.06184300045073032,0.007359208222967572,-0.0067716769588645545
1684451010048149200,1.922149169921875,0.05840075104236602,0.0078650388532551,-0.0001850377107039094
1684451010058161200,1.9321611328125,0.06678104137480259,0.00016483517289161682,0.005582229712279513
1684451010068172300,1.94217236328125,0.06169219380319118,0.003142576908622868,0.002539610613370314
1684451010078184400,1.952184326171875,0.06707973206043243,-0.0010390926901949569,-0.003688214392913505
1684451010088195300,1.9621953125,0.06378653573393821,-0.0028425208163913337,0.0017837781442329287
1684451010098206200,1.972206298828125,0.07171849777698516,0.006560417961515486,-0.0019453984467312693
1684451010108218400,1.98221826171875,0.06288987915515899,0.007916198218334466,0.008323226382955908
1684451010118229500,1.9922294921875,0.06812777980864047,0.0038076714875409376,-0.0009900796164292842
1684451010128241400,2.002241455078125,0.05959726735055446,0.0012209566297009587,-0.003154271912993863
1684451010138252300,2.012252197265625,0.05974515138864517,0.0035698578434064984,-0.004353610365930944
1684451010148263200,2.02226318359375,0.07066986550688743,0.005404265629756264,-0.0003241082546766847
1684451010158275300,2.032275390625,0.06932195802927017,-0.0022296359153231604,0.006007414588099345
1684451010168286200,2.0422861328125,0.0717167442113161,-0.006965925455908291,0.005051575167989358
1684451010178298000,2.052298095703125,0.07111819379627704,-0.002426099202339537,0.000018814298324286938
1684451010188309500,2.0623095703125,0.06109364338815212,0.0011085183643270284,-0.003813119414215907
1684451010198320400,2.0723203125,0.05839899747669697,0.006157088724477216,0.0024948672893457115
1684451010208332300,2.082332275390625,0.0631856472313404,0.00260201289167162,0.002670178190479055
1684451010218343200,2.09234326171875,0.058548050558567044,0.002368432464660145,-0.0022251561030279844
1684451010228355300,2.102355224609375,0.06662731211781502,-0.00018432989122811703,0.001970569420605898
1684451010238366500,2.112366455078125,0.05899404076039791,-0.006844513866212218,-0.0030141145236324517
1684451010248378400,2.12237841796875,0.06797288150787353,0.008637749391957186,-0.008560113011905924
1684451010258389200,2.13238916015625,0.060789107483625406,0.010365701129147782,-0.0014138123206794261
1684451010268400400,2.142400390625,0.0649766223013401,0.004650944778113625,-0.0024677052877843378
1684451010278412300,2.152412353515625,0.06826864958405494,-0.00010716386863496154,-0.0022802107585128397
1684451010288423400,2.16242333984375,0.05869125842154026,0.010770208543119952,-0.002638760138908401
1684451010298435300,2.172435302734375,0.06991349418163299,0.006174181423173285,0.0007421692699659616
1684451010308446500,2.182446533203125,0.05869125842154026,0.01196731393977534,-0.0013295041712466627
1684451010318457300,2.192457275390625,0.05599719703197479,0.003012854148307815,-0.0036596550187095998
1684451010328469200,2.20246923828125,0.05839139869213104,0.004082282611262053,-0.0030419341123197226
1684451010338480000,2.212480224609375,0.06512625990509986,0.0101561180656543,-0.004925026178872212
1684451010348492300,2.2224921875,0.07215922728180885,0.0037636633824557064,-0.0020640015914104876
1684451010358503400,2.23250341796875,0.0697650256216526,0.008337254908308386,0.0037510504960548132
1684451010368515300,2.242515380859375,0.0612380202949047,-0.009794413180369884,-0.003032810090947896
1684451010378526200,2.252526123046875,0.0654296267658472,-0.0009638994289794936,-0.0029906605828087774
1684451010388537300,2.262537353515625,0.06049275488555431,0.01053623082388658,0.0004616900944616645
1684451010398549200,2.27254931640625,0.07066928098499775,0.0083965930132661,0.0021863949952181426
1684451010408560400,2.282560302734375,0.06633095951974391,0.008466621475596911,0.004632482106238603
1684451010418572500,2.292572509765625,0.07276596100330353,0.010028979988070204,0.0029925694121047852
1684451010428583400,2.30258349609375,0.07141922256946563,0.005005635400721803,-0.005283959151757881
1684451010438594300,2.31259423828125,0.07111877831816672,0.0014634829815709962,0.0015090893886983393
1684451010448606200,2.322606201171875,0.06662906568348408,0.0018232973038684575,0.0021235497589223084
1684451010458614000,2.332614013671875,0.061841831406950945,0.010524280091188847,-0.00022590857720933855
1684451010468626200,2.342626220703125,0.06408522641956806,-0.002231768506905064,-0.004057860556058585
1684451010478637300,2.35263720703125,0.07021919912993907,0.0029235318970400838,0.0027727343826554713
1684451010488649200,2.362649169921875,0.07635492540597916,0.005830920943454839,-0.0011524397044442593
1684451010498660000,2.37266015625,0.06782499746978282,0.012142848603194579,0.0004256597998552024
1684451010508671200,2.382671142578125,0.0649807139545679,0.0011461560941301286,0.003487312392797321
1684451010518683100,2.39268310546875,0.06378127503693104,0.0013703202388249337,-0.0024935886477120217
1684451010528694300,2.4026943359375,0.07335808167755603,0.011437997402623296,-0.002459165788302198
1684451010538706200,2.4127060546875,0.06902092925608158,0.007618672009906731,0.003601422025449574
1684451010548717300,2.42271728515625,0.06662906568348408,0.009036238057096488,0.0018775665080640463
1684451010558728200,2.432728271484375,0.07096855619251728,0.013550738073163666,-0.0038747499409597366
1684451010568740000,2.442739990234375,0.06498363656401634,0.005446794163808226,-0.0008279752567410468
1684451010578751000,2.4527509765625,0.06588087766468524,0.007800006226450204,0.003130416113371029
1684451010588763100,2.46276318359375,0.06258709681630134,0.001337043590308167,-0.008194403238361701
1684451010598774300,2.472774169921875,0.07021569199860096,0.006186862808233127,-0.0024144315974321214
1684451010608786200,2.4827861328125,0.0679740505516529,0.005831624196353368,0.0020476075790356843
1684451010618797300,2.49279736328125,0.06483166087269783,0.003827782693807967,-0.008068000379716977
1684451010628808200,2.50280810546875,0.07291384504139423,0.007664506745897233,-0.0033723899093922225
1684451010638820000,2.512820068359375,0.07620645684599876,-0.0025268652962287886,0.0034113336802925913
1684451010648831200,2.522831298828125,0.06273790346384048,0.004144753388222307,-0.006195082647306845
1684451010658843400,2.532843505859375,0.060194648721814153,0.001621020763996057,-0.003018160511087626
1684451010668854300,2.542854248046875,0.0603448708474636,0.0015205058318562804,-0.004739869737159461
1684451010678865200,2.552865234375,0.07007073056995869,0.006377343879034742,0.0024071068075019863
1684451010688877000,2.562876953125,0.06887421426177025,0.006161504604690708,0.004462276638485491
1684451010698888200,2.57288818359375,0.07426233704090118,0.0025311898448970166,-0.00507187817050144
1684451010708900000,2.582900146484375,0.07216857963204383,-0.0022242975865025072,-0.0023534860572777686
1684451010718911200,2.5929111328125,0.07531038478910923,-0.004289952278882265,-0.0047000217839609825
1684451010728923100,2.602923095703125,0.07456336581408977,0.0025693116318900137,0.003546824027691036
1684451010738934300,2.612934326171875,0.05720598829984665,0.00031803927349392325,0.0016170706746634095
1684451010748945200,2.622945068359375,0.07291676765084266,0.00195846799085848,-0.00533715064371936
1684451010758957000,2.63295703125,0.07097264784574508,0.015357970158220267,-0.0022344536543358116
1684451010768968200,2.64296826171875,0.061545478808879846,0.0009408884461503475,-0.0023183325455058365
1684451010778980400,2.65298046875,0.0696253248900175,0.003655467467359267,0.005178279420733452
1684451010788991200,2.6629912109375,0.07171849777698516,-0.0016209887979552148,-0.005591591195669025
1684451010799002000,2.673002197265625,0.07590893520414829,0.01280080105527304,-0.0033569640113972126
1684451010809014000,2.683013916015625,0.06782967364490032,0.00800001774400007,0.0008375833353027701
1684451010819025200,2.693025146484375,0.06782967364490032,0.006618564189807511,-0.001058815737394616
1684451010829037300,2.703037353515625,0.06468669944405556,-0.0003964885042980313,0.002319711651839316
1684451010839048200,2.713048095703125,0.0756119980841875,-0.0014514226510189473,0.003874083220679313
1684451010849060400,2.723060302734375,0.06663491090238094,0.0014677298984257503,0.0035360469053499397
1684451010859071200,2.7330712890625,0.06753332104682921,0.011177300639823078,-0.0013503551630303263
1684451010869082000,2.74308203125,0.06708557727932929,0.004702579067228362,-0.0013498893721494822
1684451010879094000,2.753093994140625,0.06813187146186828,0.004686655412311665,-0.002954182763630524
1684451010889105200,2.763105224609375,0.06633738926053047,0.004850189110683277,-0.002103520751046017
1684451010899117300,2.773117431640625,0.06304653102159499,0.0017887374471407382,-0.0006862104321829974
1684451010909128200,2.783128173828125,0.07636252419054508,0.0056944579150993374,-0.004432685217820108
1684451010919140000,2.79314013671875,0.06873100639879703,0.008355808911728673,-0.0004858290218748152
1684451010929151200,2.803151123046875,0.06917758112251758,0.005403585209744051,0.002068540769210085
1684451010939162400,2.813162353515625,0.08070143017768859,0.010840835227072238,0.0013984686210751533
1684451010949174300,2.82317431640625,0.07636427775621414,0.008084846483240834,0.0004989624980837106
1684451010959185200,2.83318505859375,0.06992927627265452,0.003215514280670322,0.0017836411469150334
1684451010969197300,2.843197265625,0.06977963866889476,0.008468265443411655,0.0008564067667815834
1684451010979208200,2.853208251953125,0.07771043166816234,0.004074706659582443,-0.003060675345407799
1684451010989220000,2.86322021484375,0.06858136879503726,-0.0003259577184682712,-0.005299640778079629
1684451010999231000,2.87323095703125,0.06064823770821094,0.000192248336202465,-0.0018866813962813466
1684451011009242400,2.883242431640625,0.06274491772651672,0.007406883289595134,-0.0017980532647576182
1684451011019254300,2.893254150390625,0.06139701024889946,0.005808896341314539,-0.000053392421361058946
1684451011029265200,2.90326513671875,0.06977730058133602,0.0039476736132754014,0.000767650771094486
1684451011039277000,2.913277099609375,0.06169686997830867,0.002921234908676706,-0.008495833870349452
1684451011049288200,2.9232880859375,0.07292027478218079,0.00931231048554182,-0.0036703682089690116
1684451011059299300,2.93329931640625,0.058555064821243286,0.003353219418041408,-0.0015532207913696765
1684451011069311200,2.943311279296875,0.06499006630480289,0.002498611882701516,0.00034931576116941867
1684451011079322000,2.953322021484375,0.0729237819135189,0.0007916481346124782,-0.004696752114640548
1684451011089334300,2.963334228515625,0.0646937137067318,0.006617244448978454,0.006442244075099006
1684451011099345200,2.97334521484375,0.08070435278713703,0.003118223352078348,-0.0038670780911576
1684451011109357000,2.983357177734375,0.07292261286973953,0.0008193124596728011,-0.004189222717611119
1684451011119368200,2.9933681640625,0.06409457876980304,0.006880845554918051,-0.0023429281306453047
1684451011129379300,3.00337939453125,0.07157528991401195,-0.0001316361561883241,-0.0039680633807554835
1684451011139391200,3.01339111328125,0.07262158409655094,0.0033946611067047342,0.0059337374305352564
1684451011149402000,3.023402099609375,0.06304711554348469,-0.0016783998073078691,0.0008370536123402416
1684451011159414300,3.033414306640625,0.06574234597682953,0.0053336115463403985,-0.006377371278498321
1684451011169425200,3.043425048828125,0.06529343316555022,0.00428853663993068,0.0016233999507501721
1684451011179437000,3.05343701171875,0.06858662949204444,0.006291227365005761,-0.0014591219002846629
1684451011189448200,3.0634482421875,0.06993161436021328,0.004971865561860613,0.0011821041903458535
1684451011199459000,3.073458984375,0.06274959390163422,0.0023383706865366546,0.005987047653505578
1684451011209471200,3.08347119140625,0.05781213749945163,0.0068152055733371525,0.009461126105394214
1684451011219482000,3.093482177734375,0.06409750137925148,0.008749283475033008,0.004861358958669007
1684451011229494000,3.103493896484375,0.06784077956080437,0.002003261547232978,-0.006230163093842566
1684451011239505400,3.11350537109375,0.0693377401202917,0.005334931287169456,0.0030996008499991146
1684451011249517300,3.123517333984375,0.06843874545395374,0.0031694238163530826,0.007012372113252058
1684451011259528200,3.133528076171875,0.07232815410792827,-0.002186404128372669,-0.005944943811139091
1684451011269539000,3.1435390625,0.05975859539210796,-0.004706474357633851,-0.004764565786998719
1684451011279551200,3.15355126953125,0.06828618524074553,-0.004362113332794979,0.0005800283776596189
1684451011289562000,3.16356201171875,0.06963350819647311,0.00027552443917375056,-0.0030403266771230845
1684451011299574000,3.173573974609375,0.06678980920314788,-0.002526541069243103,0.0030979842816479504
1684451011309585200,3.183585205078125,0.07472001768052577,-0.0041979129141429435,0.0013553601317107676
1684451011319597300,3.193597412109375,0.06768529673814773,-0.0011845975415315478,0.0029557353999000043
1684451011329608200,3.203608154296875,0.06514145747423171,-0.006819589487509802,-0.0009828187585808337
1684451011339619000,3.213619140625,0.06260112534165382,0.0025165493981912732,-0.0033598866208456456
1684451011349631200,3.22363134765625,0.0660439592719078,-0.006914871122105978,0.0008452551851049065
1684451011359642400,3.233642333984375,0.06963467724025249,0.003907250271341763,0.005313395308796316
1684451011369654300,3.243654296875,0.07053250286281108,0.002764386679418385,-0.0027079620507545767
1684451011379665200,3.2536650390625,0.07023322765529155,-0.00591502359691076,-0.005518452894221991
1684451011389677300,3.26367724609375,0.06679039372503758,0.000559250451112166,0.0017785174472257493
1684451011399688200,3.273688232421875,0.05856149456202984,0.006645899721304886,-0.0005126165641006082
1684451011409699300,3.28369921875,0.07142974396348,0.0006882105930242687,-0.0018832199307158588
1684451011419711200,3.293711181640625,0.07157879704535007,0.0017340115852188319,0.000010347864078357815
1684451011429722400,3.303722412109375,0.06619125878810882,0.002001197454310022,-0.00021305822879076004
1684451011439734300,3.313734375,0.07202654081285,0.00890866615467239,0.002270127755915746
1684451011449745200,3.3237451171875,0.07097907758653163,0.00842377784771379,-0.0011253142355009912
1684451011459762700,3.3337626953125,0.05825929674506187,0.004164092842931859,-0.003375586513476446
1684451011469773600,3.343773681640625,0.06648761138617992,0.0022028255402110515,-0.006124684292217716
1684451011479784700,3.35378466796875,0.07292144382596015,0.005931175580690615,0.0018756302793044596
1684451011489796600,3.363796630859375,0.0648415977448225,0.0024414520350983363,0.0032610202230978756
1684451011499807500,3.373807373046875,0.06499357343614101,-0.002088053753855638,0.0008128050870727748
1684451011509819400,3.3838193359375,0.060356561285257335,-0.0005748544456204399,-0.0035219361816067247
1684451011519830800,3.393830810546875,0.05601823982000351,0.004052124935016036,0.00623188012689352
1684451011529842700,3.4038427734375,0.05990881751775741,0.004647620309866033,-0.005675725815165788
1684451011539853600,3.413853515625,0.0711328068435192,0.009337855918752028,-0.004018222665414214
1684451011549864400,3.423864501953125,0.06514905625879765,0.0029416109764249993,-0.004915920423809439
1684451011559876600,3.433876708984375,0.06724573627710342,0.007264205149584449,-0.000007808847120031713
1684451011569887700,3.4438876953125,0.07053834808170795,0.007948785313684493,0.0041375290629919615
1684451011579899600,3.453899658203125,0.06515314791202545,-0.002421984716225415,0.0020183906177058814
1684451011589910500,3.46391064453125,0.05901742163598537,0.0037137415598146616,-0.0017532094760332256
1684451011599922700,3.473922607421875,0.06395604708194733,-0.00340322343907319,-0.0001622413570061326
1684451011609933600,3.48393359375,0.06784837834537029,-0.0006912793329451232,0.006432681662309914
1684451011619944400,3.4939443359375,0.07188917816877365,-0.002765893649915233,-0.0005493318452965468
1684451011629956600,3.50395654296875,0.06874620396792888,0.001816552469250746,-0.005071074452903121
1684451011639967700,3.5139677734375,0.06664893942773342,0.008467621556017548,-0.005640426172921434
1684451011649979600,3.523979736328125,0.0629074148118496,-0.004226737149828113,-0.003999198304535821
1684451011659990500,3.533990478515625,0.07397884392440318,0.0014723832406569272,0.002141231546085328
1684451011670002700,3.544002685546875,0.06994038218855858,0.0034222112673334775,-0.0008976064268499612
1684451011680013600,3.554013671875,0.06859422827661037,0.008433600555406883,-0.0005371025513857603
1684451011690025500,3.564025390625,0.06709609867334365,0.007077381907170638,-0.0027617837303783744
1684451011700036600,3.57403662109375,0.0759258863389492,0.004254314709920436,-0.0024478772093076257
1684451011710047700,3.5840478515625,0.06500117222070693,0.0034381531885592266,0.0008254453729372471
1684451011720059600,3.5940595703125,0.06574877571761607,-0.0019815109397284683,0.005867385062901303
1684451011730070500,3.604070556640625,0.0679956778615713,0.0008617542287567629,0.006496979070175438
1684451011740082400,3.61408251953125,0.0563233602464199,-0.0009485009304480627,-0.007302943424507975
1684451011750093800,3.62409375,0.0682926149815321,0.003579918013117276,-0.0007261679832357913
1684451011760105700,3.634105712890625,0.06844459067285061,-0.001021420036186464,0.0020334055237472056
1684451011770116600,3.64411669921875,0.06679916155338286,0.0054069370774552225,0.0029852537553291766
1684451011780127500,3.65412744140625,0.057820320805907245,0.0007128381442045793,0.00019991561942733822
1684451011790139600,3.6641396484375,0.07188508651554584,0.007607451929571106,-0.00502988392598927
1684451011800150500,3.674150634765625,0.07113689849674701,0.01271032802653499,-0.005341561957355589
1684451011810162400,3.684162353515625,0.07248246788680553,-0.0009484735309844836,-0.00017352993600070474
1684451011820173600,3.694173583984375,0.06709668319523335,-0.002954237562557682,-0.0001710822505876422
1684451011830185700,3.704185791015625,0.06844225258529185,-0.0028810535953380165,-0.00024724362618289885
1684451011840196600,3.714196533203125,0.06305412980616092,0.005533495199726894,-0.007928820237889886
1684451011850207500,3.72420751953125,0.05781622915267944,-0.009170006804866716,-0.007803412893088534
1684451011860219600,3.7342197265625,0.06290332315862178,-0.004166124969813972,-0.00017969481530599296
1684451011870230800,3.744230712890625,0.06529810934066772,-0.0010781095263315364,0.002675301890168339
1684451011880242700,3.75424267578125,0.07427402747869491,-0.006787271820218302,-0.00045358898639678955
1684451011890253600,3.764253662109375,0.0763660313218832,-0.002839474909356795,-0.0032821086768992243
1684451011900265700,3.774265625,0.06424830802679062,-0.0028549601728562264,0.004136451350757852
1684451011910276600,3.784276611328125,0.0617044687628746,0.0005844351247185841,-0.0019693181784357873
1684451011920288500,3.79428857421875,0.06649228756129741,0.005380067336838692,0.0056124695869162675
1684451011930299600,3.804299560546875,0.06619359687566757,0.00043229960319586097,0.0010654098749626427
1684451011940310800,3.814310791015625,0.057363809210062025,-0.00006604640695732087,-0.0013953724816907196
1684451011950322700,3.82432275390625,0.06290098507106304,-0.007094666402111761,0.001435028638644144
1684451011960333600,3.83433349609375,0.06499708056747913,-0.0028102716477587815,0.0033250345031730828
1684451011970345500,3.844345458984375,0.06813947024643421,0.0023182138144969937,0.0025949027308728545
1684451011980356600,3.854356689453125,0.07292728904485703,0.005945263471547514,0.004655406324099749
1684451011990368500,3.864368408203125,0.0702355657428503,0.0023282922505168243,-0.007726365601504221
1684451012000379600,3.874379638671875,0.07068272498846054,0.00364772255232092,-0.0024729203190188855
1684451012010391800,3.884391845703125,0.0652946022093296,0.00362762504578568,0.0025766272886656224
1684451012020402700,3.894402587890625,0.06514554912745953,0.001715151621121913,-0.0013795903906691819
1684451012030413600,3.90441357421875,0.055119245153665536,-0.0008317381164059043,0.002451475672191009
1684451012040424700,3.9144248046875,0.06454641419053077,0.00348918012289796,-0.00521702226223424
1684451012050435600,3.924435546875,0.06020750820338726,-0.0015729164391057565,-0.0013144801320508122
1684451012060447700,3.93444775390625,0.07038344978094101,-0.0006111952674807981,-0.0042450080254580825
1684451012070458600,3.944458740234375,0.06380114878118037,0.0005343352055642754,-0.0024639789607375858
1684451012080470500,3.954470458984375,0.06500000317692756,0.0006154102182947099,-0.0006437686630990356
1684451012090481400,3.9644814453125,0.06455225940942765,-0.005400603234791196,-0.0038520540519617497
1684451012100493600,3.97449365234375,0.07487842311263083,0.0024545581118436527,-0.007324123209854588
1684451012110504700,3.984504638671875,0.07009001979231834,0.00682999671709258,-0.00035528884422965346
1684451012120515600,3.994515625,0.07398001296818256,0.000898067651153542,0.0014909418106544762
1684451012130527500,4.004527587890625,0.06051087506413459,-0.00105539993760176,0.0020844507243949918
1684451012140538600,4.01453857421875,0.066196519485116,-0.005159597553149797,-0.00425515496013686
1684451012150550500,4.024550537109375,0.06619418139755726,0.004691482284478843,-0.004106512870220467
1684451012160561700,4.034561767578125,0.06918459538519382,0.0006836851149564609,-0.0035842334286309775
1684451012170573800,4.04457373046875,0.07023147408962249,0.004371173422085121,0.003991645185742527
1684451012180584700,4.054584716796875,0.06320084480047225,0.001736838296544738,0.008334323165705426
1684451012190596600,4.0645966796875,0.060956280744075775,-0.0004910805857274681,-0.00043998971930705007
1684451012200607500,4.074607421875,0.05870937860012054,-0.012591441754065453,-0.006453742716647684
1684451012210618400,4.084618408203125,0.061252048820257185,-0.0024450185319408774,0.001510660291276872
1684451012220630500,4.094630615234375,0.0784615422964096,-0.0017408294850727543,-0.00001483224295079708
1684451012230641700,4.1046416015625,0.06903612682521343,0.003838938842061907,0.00043955132788978514
1684451012240653600,4.114653564453125,0.06379997973740101,0.0039935722813475875,-0.0019842691523954273
1684451012250664700,4.124664794921875,0.06649111851751804,-0.0029787783487699926,-0.004392691134149208
1684451012260676600,4.134676513671875,0.06215221253037452,-0.0028648924784036352,0.00025555479680187997
1684451012270687500,4.1446875,0.06589665975570679,-0.007095059127756394,0.0029946974371094256
1684451012280699400,4.154699462890625,0.07068681664168834,0.0043941113396780565,0.002340398246841505
1684451012290710800,4.164710693359375,0.06799275525212288,-0.0022224709555972366,-0.006133625650499016
1684451012300721700,4.1747216796875,0.06664601681828498,0.0012738878267584367,-0.006106408850010484
1684451012310733600,4.184733642578125,0.062006082057952876,-0.00702220852067694,0.0031532124670688062
1684451012320744400,4.194744384765625,0.0705360099941492,-0.003956948331696912,0.002838931486662477
1684451012330756600,4.204756591796875,0.07367956871688365,-0.0004315963502973318,-0.00006869958834722638
1684451012340767700,4.214767822265625,0.07652209866642952,-0.006052098546619527,0.003944280646368861
1684451012350779600,4.224779541015625,0.07382745275497436,-0.0023174511960940432,0.0023577238409779964
1684451012360790500,4.23479052734375,0.06454875227808952,-0.0016683898699469863,-0.0019784056671895084
1684451012370802700,4.244802734375,0.0765185915350914,0.006048011459968984,0.0032191629759036004
1684451012380813600,4.2548134765625,0.06888707374334335,-0.0008078549173194914,0.0006852057851850986
1684451012390825500,4.264825439453125,0.06290332315862178,0.002186509159649722,-0.004432676084665581
1684451012400836600,4.274836669921875,0.05826455744206905,0.0061180764549179,0.0006165061968378722
1684451012410847700,4.28484765625,0.07293138069808483,0.003656065688980743,0.002135157998325303
1684451012420859600,4.294859619140625,0.060064300340414045,0.002643185152276419,0.0012896744843572377
1684451012430870500,4.30487060546875,0.06515139434635639,-0.003199828087771311,-0.005750973875308409
1684451012440882700,4.314882568359375,0.0679956778615713,-0.00045368031794205304,-0.004435443430487066
1684451012450894600,4.32489453125,0.07158581130802631,-0.00022720091857481747,-0.0011681121976114808
1684451012460904200,4.334904296875,0.06260755508244037,-0.007580454324791207,0.0011125278191640973
1684451012470915300,4.344915283203125,0.07083879233300686,0.0017192706738132983,0.00024557225890457627
1684451012480926200,4.35492626953125,0.07562602660953999,0.009547270018886774,-0.005985595481935889
1684451012490938000,4.364938232421875,0.06544891598820686,-0.0004930350807961076,-0.00449966777311638
1684451012500949200,4.37494921875,0.061707391372323034,0.002360975243989378,-0.002289535709284246
1684451012510961400,4.38496142578125,0.0612602321267128,0.0012503973533166573,-0.006091905400622636
1684451012520972300,4.39497216796875,0.05991524725854396,0.0016543339451309293,-0.00609362243367359
1684451012530984200,4.404984130859375,0.06066518884301185,0.001612581729213707,0.0016428444367367772
1684451012540995000,4.4149951171875,0.0702402419179678,0.0005278826318914071,0.003204275934025645
1684451012551007200,4.42500732421875,0.0667979925096035,0.004286344682844356,-0.007060823498014361
1684451012561018000,4.43501806640625,0.06485153461694718,0.006325490394211374,0.001007907534064725
1684451012571029200,4.445029296875,0.0706885702073574,-0.0037908619166351853,-0.005717327334033325
1684451012581041400,4.45504150390625,0.06156242994368076,0.004633089461014606,0.0006342975818552076
1684451012591052300,4.46505224609375,0.06829553759098053,-0.004354176621511579,0.0012143168263603
1684451012601064200,4.475064208984375,0.06590250497460365,-0.002503625984536484,-0.0009039813687093556
1684451012611075000,4.485074951171875,0.06365910996198654,0.0005019810056546703,-0.006517574333632365
1684451012621087200,4.495087158203125,0.05827157170474529,0.0030645752023905513,0.0010871376495808361
1684451012631098400,4.505098388671875,0.06635200230777263,-0.00004635989237576723,-0.002609415313415229
1684451012641110300,4.5151103515625,0.06874445040225982,-0.0036627328917849806,0.004570038728741929
1684451012651121200,4.52512109375,0.0687450349241495,0.0016991183683509007,-0.00007430734522640705
1684451012661133300,4.53513330078125,0.06949380746483802,0.0011868808301631361,0.002352070418326184
1684451012671144200,4.545144287109375,0.07637596819400787,0.004810487287957221,-0.0017666078137233852
1684451012681155300,4.5551552734375,0.05662205093204975,0.0018104652217589318,-0.003404803474806249
1684451012691167200,4.565167236328125,0.06500117222070693,0.003371864753006957,-0.0043572270951233805
1684451012701178400,4.575178466796875,0.07368073776066303,-0.0007220580636989324,-0.0003176602475810796
1684451012711190300,4.585190185546875,0.07383212893009185,0.002645340576744638,-0.0006994078404735773
1684451012721201200,4.595201171875,0.061113517132401464,-0.008863215011171996,-0.004267996175400912
1684451012731213300,4.60521337890625,0.06590250497460365,-0.0017677403248846529,-0.0053112033517099914
1684451012741224200,4.61522412109375,0.07248831310570239,0.00481508583126124,-0.0029367475716397164
1684451012751236000,4.625236083984375,0.06755027218163014,0.00007857709496747701,-0.0033160383459646253
1684451012761247200,4.635247314453125,0.06650222443342209,0.0006297584040556103,-0.0011360639583785086
1684451012771259400,4.64525927734375,0.06770049430727958,-0.002848950557177886,-0.001652571246307343
1684451012781270300,4.655270263671875,0.06575403641462325,0.002413673545606434,0.0029951266953721642
1684451012791281200,4.66528125,0.06964636767804622,-0.0004182025791844353,0.00270747799356468
1684451012801293000,4.67529296875,0.07652794388532638,0.003089417382702231,0.004454988381173462
1684451012811304400,4.685304443359375,0.06410626920759678,0.0014988145898561923,0.0022075291147921235
1684451012821316400,4.69531640625,0.05333236173689365,0.007402640939317643,0.00010136888208799063
1684451012831327200,4.7053271484375,0.07024258000552654,0.004148237686674111,0.0008857150596566498
1684451012841339400,4.71533935546875,0.07892039197981357,0.0030742015472613273,0.0016587452587671578
1684451012851350300,4.725350341796875,0.06919570130109787,-0.005951323319575749,0.00013416603999212383
1684451012861362200,4.735362060546875,0.07248714406192303,-0.007709779792884364,0.0014805665471125393
1684451012871373000,4.745373046875,0.06844751328229903,-0.0011904381938511505,0.004829612113535404
1684451012881385200,4.75538525390625,0.06844809780418873,-0.007047936616977677,-0.006330463396850973
1684451012891396400,4.765396240234375,0.06126490830183029,-0.010352508287434465,-0.0017550817727111279
1684451012901407200,4.7754072265625,0.06395663160383701,0.0022216444051126015,0.006772718138480558
1684451012911419100,4.785419189453125,0.06979074458479881,0.005264249804290011,-0.006358739643264562
1684451012921430300,4.79543017578125,0.06515139434635639,-0.00299670216452796,-0.00007638057130388915
1684451012931442200,4.805442138671875,0.06589899784326553,-0.0036752864126814526,-0.003548531927587464
1684451012941453300,4.815453369140625,0.06784428669214249,-0.0033092432789970185,0.0015219123376533387
1684451012951465200,4.82546533203125,0.06096212596297264,0.002165091912285425,0.0018027294398751108
1684451012961476400,4.835476318359375,0.06246025556623935,0.0024895883260294795,0.005048570360150188
1684451012971488300,4.84548828125,0.07009235787987708,-0.0005083970467094331,0.003008040975872427
1684451012981499100,4.8554990234375,0.07533025853335856,0.0024371731522027404,-0.009996054966002702
1684451012991511300,4.86551123046875,0.062459671044349664,0.0009124204034917056,-0.007072084677545353
1684451013001522200,4.875522216796875,0.06605155805647372,-0.006651749506779015,0.0015211908184457569
1684451013011533300,4.885533203125,0.06874737301170826,0.0025049685582518577,-0.001550800505420193
1684451013021545200,4.895545166015625,0.06440788250267505,0.0010540345310000702,-0.00004859751523472368
1684451013031556000,4.90555615234375,0.06156593707501888,-0.0006362429437693208,0.003184347390849143
1684451013041568300,4.915568359375,0.07323533208072185,0.00016599508351646363,-0.001532579862140119
1684451013051579100,4.9255791015625,0.06829553759098053,-0.0006213376355823129,0.005099679492879658
1684451013061591000,4.935591064453125,0.05617664525210857,-0.0009102193132508546,0.0006895075009670108
1684451013071602400,4.9456025390625,0.06470774223208427,-0.0028174229077529162,-0.0084078907254152
1684451013081614300,4.9556142578125,0.06904781726300716,-0.0022602822153363375,-0.0014876447418704628
1684451013091625200,4.965625244140625,0.07518237449526786,0.0036038514445535835,0.002049178481614217
1684451013101637000,4.97563720703125,0.07263853523135184,-0.0008865644430276006,0.008125164793897419
1684451013111648300,4.985648193359375,0.07189151625633239,0.0003241128212539479,-0.002810874435957521
1684451013121660200,4.99566015625,0.06949556103050708,-0.003572876350977458,-0.0021802027164492753
1684451013131671300,5.00567138671875,0.06874678848981856,0.0008668094297870993,-0.0030268735405057667
1684451013141682200,5.01568212890625,0.06485562627017498,0.0025489583970280364,0.001756506544817239
1684451013151694300,5.0256943359375,0.06365910996198654,-0.0033830300344154236,0.0037828338738065213
1684451013161705200,5.035705322265625,0.06500643291771412,0.002822797769191675,0.0026254166001453993
1684451013171717000,5.045717041015625,0.0576741903334856,0.0018581676878500729,0.0010839684449601918
1684451013181728000,5.05572802734375,0.06979249815046787,0.005568666977807879,-0.0038640915496274825
1684451013191740200,5.065740234375,0.06216039583683013,-0.010460617437562904,-0.002235166040388867
1684451013201751300,5.075751220703125,0.06545242311954498,-0.0044415443777106696,0.00482371209571138
1684451013211763200,5.08576318359375,0.06335691214501857,0.0029251027996186167,0.0009181286250706761
1684451013221774300,5.0957744140625,0.06679857703149318,0.004248364459746517,0.005843574929051101
1684451013231786200,5.1057861328125,0.07442892577946186,-0.0037536991108674555,0.0034043833496980366
1684451013241797000,5.115797119140625,0.06350596522688866,-0.0013359750112285837,0.0016245963939931242
1684451013251809000,5.12580908203125,0.07158581130802631,-0.0017280522018903865,-0.0034646987021900713
1684451013261820400,5.1358203125,0.065599722635746,-0.0010478559519629925,0.009875816986663266
1684451013271831300,5.145831298828125,0.06709726771712303,0.0008181388493161648,0.00522538823178038
1684451013281843200,5.15584326171875,0.06964110698103905,0.004118061744119041,-0.007441858704853803
1684451013291854000,5.16585400390625,0.065599722635746,0.002112713271076791,0.0023068795697297898
1684451013301866200,5.1758662109375,0.06634498804509639,0.0041249709755182265,0.003907811960345134
1684451013311877400,5.18587744140625,0.07053542547225952,0.0003270947962068021,-0.007128390575200319
1684451013321889300,5.19588916015625,0.06769114195704459,0.005432468810933642,-0.0038753709954675287
1684451013331900200,5.205900146484375,0.0615565847247839,0.004231025165878236,-0.00037176505499519403
1684451013341912300,5.215912353515625,0.06260346342921257,-0.006574894011439755,-0.004936415222566574
1684451013351923200,5.225923095703125,0.06843874545395374,0.0029605668386444447,0.005486833913251757
1684451013361935000,5.23593505859375,0.05946224279403686,-0.003363553582387976,0.007856832713913173
1684451013371946200,5.2459462890625,0.07128478253483772,-0.00041772308857180175,-0.005705308102676644
1684451013381958100,5.255958251953125,0.06544833146631718,0.001021315004909411,0.0009522500903811305
1684451013391969300,5.26596923828125,0.06335340501368046,0.0045596040996955705,-0.0062856652738992125
1684451013401980200,5.275980224609375,0.07457680981755256,-0.0044792369064409285,-0.004022232120251283
1684451013411992300,5.285992431640625,0.06889058087468147,0.004909056858182884,-0.0010227215107064694
1684451013422003200,5.296003173828125,0.07337912446558476,0.008862580256932415,-0.004944397599622607
1684451013432015000,5.30601513671875,0.06140694712102413,0.00408644732972607,-0.004893032738566398
1684451013442026200,5.316026123046875,0.059011576417088506,0.0007982696716440841,-0.005798731140326708
1684451013452038400,5.326038330078125,0.06484744296371936,0.0008866968737682328,-0.0052754927175119514
1684451013462045700,5.336045654296875,0.07038403430283069,0.0010172187851043419,0.0005511402098927646
1684451013472057600,5.3460576171875,0.0724789607554674,0.00137159431388136,0.00031542262472212314
1684451013482068700,5.35606884765625,0.060058455121517175,-0.008319751217658631,-0.007267808179045095
1684451013492080600,5.36608056640625,0.06050678341090679,0.0015249628112651407,-0.0007166329699102789
1684451013502091500,5.376091552734375,0.07427168939113617,0.011591986954514868,0.005548528372077271
1684451013512103700,5.386103759765625,0.060953942656517025,0.0009350386606762185,-0.003224725067010149
1684451013522114800,5.39611474609375,0.06843465380072593,-0.0010641586327925323,0.0028582024427130817
1684451013532126700,5.406126708984375,0.06918225729763508,-0.0039704288677778095,-0.004689125930611044
1684451013542137600,5.4161376953125,0.06274725581407546,0.0016065858132671563,-0.006512258837698027
1684451013552148500,5.4261484375,0.06214636731147766,0.0035777580220717935,0.0012026263885665685
1684451013562160600,5.43616064453125,0.06483984417915344,-0.0021477160857990385,0.0025606899340171367
1684451013572171800,5.446171875,0.06962766297757625,-0.00010644691600464284,-0.002455823053745553
1684451013582183700,5.45618359375,0.0658873074054718,0.002156483914144337,-0.0029175496808253225
1684451013592194800,5.46619482421875,0.06349310574531555,0.005895172685547731,-0.005955109012126922
1684451013602206700,5.476206787109375,0.06528700342476368,0.0009586935308994724,-0.000716377241583541
1684451013612217600,5.486217529296875,0.0625935265570879,-0.000740159975970164,-0.004298263449501246
1684451013622229500,5.4962294921875,0.06678454850614071,-0.004810131094930693,-0.0006206526489928364
1684451013632241000,5.506240966796875,0.07112520805895328,-0.003201682118140161,-0.0011582483907230199
1684451013642252800,5.516252685546875,0.07082710189521313,-0.0012781347436131908,-0.004495968845533207
1684451013652263700,5.526263671875,0.07202361820340156,0.0008769700641976669,-0.0050672019953839475
1684451013662275800,5.53627587890625,0.06933014133572578,-0.003896112389396876,-0.00609790588314645
1684451013672286700,5.54628662109375,0.07052665764391422,0.0009469528607558459,-0.003943677858170121
1684451013682297600,5.556297607421875,0.07082710189521313,0.0011646050662733613,0.0016411913357675075
1684451013692309500,5.5663095703125,0.07232464697659015,-0.002363021070603281,-0.00038742841500788926
1684451013702320600,5.576320556640625,0.07097790854275227,0.004724695000913925,-0.00013414777368307113
1684451013712332800,5.586332763671875,0.06813187146186828,0.001650835946947336,-0.006781641230452805
1684451013722343700,5.59634375,0.061548401418328284,0.0064857133240671825,-0.0000065667381044477225
1684451013732355600,5.60635546875,0.06514028843045234,0.004032726114802062,0.0013574424909427762
1684451013742366700,5.61636669921875,0.06424129376411437,0.009734883279167115,-0.0010223379182163624
1684451013752378600,5.626378662109375,0.06618716713488101,0.0004061559483641758,-0.0012503836535848677
1684451013762389800,5.6363896484375,0.07202128011584281,-0.0009044151935493573,-0.008553025683993474
1684451013772402000,5.64640185546875,0.06828034002184867,0.0013378701407928018,-0.01144785207635723
1684451013782412800,5.656412841796875,0.06633563569486141,-0.0006678619247395545,-0.006104125561378896
1684451013792424700,5.6664248046875,0.059004562154412264,0.0025968206933233884,-0.005938002613699063
1684451013802435600,5.676435546875,0.05810849009752273,0.0008320577768143266,-0.0037586949463933703
1684451013812447700,5.68644775390625,0.06110358026027679,-0.0013236452526180073,0.0013280154670588672
1684451013822458600,5.696458740234375,0.0687368516176939,-0.003724861175450496,-0.0005549396021757274
1684451013832470500,5.706470458984375,0.06918751799464225,-0.00722237073527649,-0.000727711486350745
1684451013842481700,5.716481689453125,0.07023498122096061,-0.0015229032849194482,-0.0002397361731622368
1684451013852492800,5.726492919921875,0.07966156573593616,0.001331892491155304,-0.0049609286093153055
1684451013862504700,5.736504638671875,0.07397475227117538,0.0038336735784774644,0.0005068078778218477
1684451013872515600,5.746515625,0.0687368516176939,0.0032296478372998536,0.00048255935255438084
1684451013882527500,5.756527587890625,0.05437222617864609,0.0013988111143698914,-0.00676685465327464
1684451013892539000,5.766538818359375,0.06245148773789405,-0.006693830516259185,-0.002684151916904375
1684451013902550800,5.77655078125,0.06843348475694656,-0.0054532604372128845,0.004626161963306367
1684451013912561700,5.786561767578125,0.06484218226671218,-0.002509224608261138,-0.0022158768180292098
1684451013922573800,5.79657373046875,0.07726268790066242,0.008840560221369378,0.004088831083057448
1684451013932584700,5.806584716796875,0.07322247259914874,-0.0029925054800231006,-0.009373128161532804
1684451013942596600,5.8165966796875,0.06903320421576499,-0.000327816315414384,0.008180840503890067
1684451013952607700,5.826607666015625,0.06469546727240086,0.007354746676981449,0.0075306877657771104
1684451013962620000,5.836619873046875,0.06544307076931,0.0017602876707911491,-0.009243921424448489
1684451013972630800,5.846630859375,0.06903612682521343,0.000715057500754483,-0.006946449003880843
1684451013982642700,5.856642578125,0.0700835900515318,0.004338928820029832,0.000029956746846437452
1684451013992653600,5.866653564453125,0.0624538258254528,0.0035847266189754008,-0.0020707327262964098
1684451014002665700,5.876665771484375,0.07457213364243508,0.0027677933460567147,0.0013897555916570126
1684451014012676600,5.886676513671875,0.0712812754034996,0.0048824611122021445,-0.0022556243065278976
1684451014022688500,5.8966884765625,0.06634323447942733,-0.0010061539683956652,-0.0033918800611514597
1684451014032699600,5.90669970703125,0.06499591152369975,0.0030403586431639266,0.002488474081177264
1684451014042710800,5.916710693359375,0.06679273181259632,0.0026444683604873714,-0.0010515548795461654
1684451014052722700,5.92672265625,0.07277765144109725,0.003685113686951808,-0.003212733235117048
1684451014062733600,5.936733642578125,0.06200374397039413,0.0022341111610410733,-0.002923513630731031
1684451014072745700,5.946745849609375,0.06933540203273296,0.0027319183150772003,-0.002369131150981411
1684451014082756900,5.9567568359375,0.06364975761175155,-0.0027783969384618102,-0.004873862247215584
1684451014092768800,5.966768798828125,0.06574409954249859,0.004170947275403887,0.00216008237702772
1684451014102779600,5.976779541015625,0.07217793198227881,0.00515958841999527,0.003723797162948176
1684451014112791800,5.986791748046875,0.060654667448997494,0.00650672871263232,-0.0012269297127611935
1684451014122802700,5.996802734375,0.061549570462107656,0.005490162948076613,-0.0051127490370068696
1684451014132814600,6.006814697265625,0.07097381688952445,0.007792809300683439,-0.0024081114544998853
1684451014142825700,6.01682568359375,0.06618599809110164,0.003977735391398891,-0.0012443740379065274
1684451014152837600,6.026837646484375,0.06514145747423171,-0.002366044144751504,-0.006110993693582713
1684451014162848800,6.036848876953125,0.06304711554348469,0.00026827728105708953,0.0017534286717418581
1684451014172860700,6.046860595703125,0.06110182669460773,0.0019506089113885535,-0.0038762203788384793
1684451014182871600,6.05687158203125,0.06289747793972492,-0.0008251896446105092,-0.004508554332470521
1684451014192883700,6.0668837890625,0.07202478724718094,-0.004197369491448626,-0.00016812310852110384
1684451014202894600,6.07689453125,0.05810907461941242,0.0010981248344760389,-0.0077252148240339
1684451014212905700,6.08690576171875,0.0628980624616146,0.0058918253844138235,-0.0013613606142345814
1684451014222918000,6.09691796875,0.06304886910915375,0.015082961742277256,0.00488136056708172
1684451014232928800,6.1069287109375,0.06364508143663405,0.00751915715818759,-0.005438117667008191
1684451014242940700,6.116940673828125,0.05197393286526203,0.0027133688782341775,-0.005278579723741859
1684451014252951600,6.12695166015625,0.0657388388454914,-0.0019362972582457586,-0.008117894802894442
1684451014262963700,6.136963623046875,0.0685842914044857,0.002170768167823553,-0.005913379629096016
1684451014272974800,6.146974853515625,0.06409457876980304,0.002128481662366539,-0.0032047965238336472
1684451014282986800,6.15698681640625,0.0714291594415903,0.0003147285049781203,-0.005875860630301758
1684451014292997600,6.16699755859375,0.06798515646755694,0.0003745278342394158,-0.00260803620708175
1684451014303009800,6.177009765625,0.06199906779527664,-0.004570431454386562,0.0002892470038495958
1684451014313020700,6.187020751953125,0.06334405266344546,0.003081873397063464,0.004641049005184322
1684451014323032600,6.197032470703125,0.06514028843045234,0.0003849304972449317,0.0006943206734023987
1684451014333043500,6.20704345703125,0.06573825432360172,0.000674163801362738,-0.005677552446071058
1684451014343055600,6.2170556640625,0.06334580622911452,-0.0030004193584201857,-0.007839982043812052
1684451014353066800,6.227066650390625,0.07127776827216148,0.004656383571634069,-0.004126697141723707
1684451014363078700,6.23707861328125,0.07232756958603859,0.008417763665458187,-0.002493661712948233
1684451014373089800,6.24708984375,0.07053074929714202,0.015218634752766228,0.0016808931584935635
1684451014383101700,6.257101806640625,0.06469196014106274,0.001294834716664627,-0.0017053974120877682
1684451014393112600,6.267112548828125,0.06110065765082836,-0.0037300716401077803,-0.0007139934882521629
1684451014403124700,6.277124755859375,0.055413844186067575,0.006252233361755497,-0.00157427271255292
1684451014413136000,6.287135986328125,0.06304594649970531,0.0038499260269571093,0.004886913525033742
1684451014423146800,6.297146728515625,0.06753682817816734,0.002551205153041519,0.004367081768857315
1684451014433158700,6.30715869140625,0.059007484763860696,0.010133696171292103,0.005769495912687853
1684451014443169500,6.31716943359375,0.06918167277574538,0.001511541640688665,-0.0093202745962888
1684451014453181700,6.327181640625,0.07307517308294773,0.0005286361171398311,-0.0031072087677195665
1684451014463196200,6.337196044921875,0.06394552568793296,0.003248032877361402,0.0011804967551492154
1684451014473208000,6.3472080078125,0.06454349158108234,-0.002646167127229273,0.007516832770360633
1684451014483219200,6.35721923828125,0.061551324027776716,-0.0063793760059168555,-0.0019350049168802798
1684451014493231000,6.367231201171875,0.06603869857490062,-0.003998896910436451,-0.0057607737501151855
1684451014503242000,6.377241943359375,0.06933189490139484,0.005594207844440825,-0.0076688358611427246
1684451014513254100,6.387254150390625,0.0685842914044857,0.0033465659149689597,0.002325282876100391
1684451014523265000,6.39726513671875,0.06963175463080405,0.006879128521867096,-0.003870923149213195
1684451014533277000,6.40727685546875,0.06544423981308936,0.0043902023495407776,0.004121235515316948
1684451014543288000,6.4172880859375,0.060058455121517175,0.0019930278475861997,-0.002770268430933356
1684451014553300200,6.42730029296875,0.07367781515121459,-0.006760899836523458,0.000006384075013920664
1684451014563311000,6.43731103515625,0.06769289552271365,-0.003079608374740928,0.006656599211832508
1684451014573323000,6.447322998046875,0.06649579469263553,-0.0007088423890992999,0.0014693327670451252
1684451014583334000,6.457333984375,0.06410334659814834,0.005743292892351746,-0.006906683249073103
1684451014593346000,6.467345947265625,0.058418286699056625,-0.0005442172787617892,0.0014080036344006656
1684451014603357200,6.477357177734375,0.06126198569238186,-0.0006293337123701348,-0.008754302143445239
1684451014613369000,6.487369140625,0.0657522828489542,-0.010213816769374533,0.0005341251430101692
1684451014623380200,6.497380126953125,0.07114040562808513,-0.007236741753923706,0.00047549029095098375
1684451014633392000,6.50739208984375,0.06964344506859779,-0.0030963129143696277,-0.007900315662613138
1684451014643403000,6.517403076171875,0.06620178018212318,0.002034200108190998,-0.00420404582740739
1684451014653414000,6.527413818359375,0.058869537597894664,0.0024630610787076874,-0.000025718963146209716
1684451014663426000,6.537426025390625,0.059168812805414195,-0.003315093064471148,0.0035730727137997745
1684451014673437200,6.547437255859375,0.06754793409407138,0.0034041367545258254,-0.00021328655765391884
1684451014683449000,6.557448974609375,0.0675473495721817,0.00276317196986638,0.00123440063316375
1684451014693460000,6.5674599609375,0.05497779085636138,0.0028913740599527953,-0.001243972179107368
1684451014703472000,6.57747216796875,0.060663435277342796,0.008268491387879476,-0.0032682902141008526
1684451014713483000,6.58748291015625,0.06739712744653224,0.0017475880194222553,0.007762889086455106
1684451014723495000,6.597494873046875,0.07023907287418842,-0.0034546841982519253,0.007171097205765545
1684451014733506000,6.607506103515625,0.062457917478680604,0.003492751186317764,0.00943652138710022
1684451014743518200,6.617518310546875,0.058715808340907095,0.0024159751005470753,-0.006638926557824015
1684451014753529000,6.627529052734375,0.06784311764836311,0.005684621507674455,-0.0010266396339982746
1684451014763541000,6.637541015625,0.06470014344751834,-0.0027599342665867877,0.003688031729822978
1684451014773552000,6.64755224609375,0.06425064611434936,-0.00447403557493817,-0.000974626318970695
1684451014783564000,6.65756396484375,0.058414195045828815,-0.00289493142364081,-0.004198520268918946
1684451014793575200,6.6675751953125,0.06873802066147328,-0.00589144635850098,-0.005038770485343411
1684451014803587000,6.677587158203125,0.07023322765529155,0.0011759941099677234,-0.004978254203451797
1684451014813598200,6.68759814453125,0.0699351214915514,-0.001979506212309934,0.005361170840123668
1684451014823610000,6.697610107421875,0.06335223596990108,-0.001259402643679641,0.011876060026325285
1684451014833621000,6.70762109375,0.06843991449773311,-0.0029782212263438847,0.00003195690768770873
1684451014843633200,6.717633056640625,0.06814122381210327,-0.0031382980257272717,0.004630326681770384
1684451014853644000,6.72764404296875,0.07128185992538928,-0.0015574220424517987,-0.00796824806598015
1684451014863656000,6.737656005859375,0.06529284864366054,0.002219178453390486,-0.00234762257207185
1684451014873667000,6.7476669921875,0.06678688659369945,-0.001302775994525291,0.0051746900910045945
1684451014883679200,6.75767919921875,0.06513970390856266,0.0033118233951507136,0.0016409812732134012
1684451014893690000,6.767690185546875,0.05870411790311336,0.0037112482086289673,-0.006040805401047691
1684451014903702000,6.777701904296875,0.05870177981555461,-0.0010946222697151824,-0.006759411132335662
1684451014913713000,6.787712890625,0.05196984121203422,0.004416889427066781,0.003966236749850213
1684451014923724300,6.797724365234375,0.06438976232409477,0.004760775527870282,0.005279209911404177
1684451014933736200,6.807736083984375,0.05585808082222938,0.0027118162419646975,-0.004914075526595115
1684451014943748000,6.817748046875,0.06618073739409447,0.0032777704284992068,0.0068917231419589366
1684451014953759000,6.827759033203125,0.07560615286529064,0.0018498199846129864,0.006210965203028172
1684451014963770000,6.83777001953125,0.055554713961482045,-0.0029778924327809363,-0.007863417718326672
1684451014973782000,6.847781982421875,0.06573124006092548,-0.0013537983622867614,-0.004955266053508967
1684451014983793000,6.85779296875,0.0619920535326004,-0.0009868236468406394,0.0031523722168523816
1684451014993805000,6.86780517578125,0.07276479195952415,-0.0023158072282793,0.0008842263554688542
1684451015003816200,6.877816162109375,0.07231529462635516,-0.0009435918598901479,0.002448845323687419
1684451015013828000,6.887828125,0.06887362973988055,-0.0013899793539429084,-0.0023134463078342375
1684451015023839000,6.8978388671875,0.0706716190725565,0.005800238110823556,-0.0013752886748872697
1684451015033851100,6.90785107421875,0.0670809011042118,-0.0002871418117312714,0.0017713753203861414
1684451015043862000,6.917862060546875,0.06737959178984165,-0.002189710330311209,0.006529164306726306
1684451015053874000,6.9278740234375,0.0625888503819704,0.002482181337708607,0.0077684420444071286
1684451015063885000,6.937885009765625,0.07426058347523212,-0.0015577691023238003,-0.008763471830589696
1684451015073897200,6.947897216796875,0.07425999895334243,0.005300019803992472,-0.00006257124166004359
1684451015083908000,6.957908203125,0.06064356153309345,0.009975085243210197,-0.004934762121597305
1684451015093920000,6.967919921875,0.07081891858875751,0.003285433145146817,0.0013793803281150758
1684451015103931000,6.977930908203125,0.06393617333769798,0.004711986216390505,-0.0002449146717786789
1684451015113943000,6.987943115234375,0.06588438479602336,0.005262130912439897,0.009776156004471704
1684451015123954200,6.9979541015625,0.0718733960777521,-0.0030447105912957337,-0.0038213301201350984
1684451015133966000,7.007966064453125,0.0627460867702961,-0.00007343969554640353,0.002187390509061515
1684451015143977200,7.017977294921875,0.059304421883821484,0.006312420850084163,0.0006638159372843802
1684451015153989000,7.027989013671875,0.06663783351182938,0.00815006633971352,0.003851816589944064
1684451015164000000,7.038,0.07127776827216148,0.008438550725160166,0.0014800094246864319
1684451015174012200,7.04801220703125,0.06259703368842602,-0.006287793298903852,-0.0007194733809679746
1684451015184023000,7.05802294921875,0.06319558410346508,0.005748507923586293,-0.0023389004094991834
1684451015194035000,7.068034912109375,0.06259644916653632,0.001694081433629617,0.002645938798366114
1684451015204046000,7.078046142578125,0.07067746429145336,0.00972949928457383,0.0006407547221053392
1684451015214058200,7.088058349609375,0.06663783351182938,-0.002373204537900165,0.006700146092614158
1684451015224069000,7.098069091796875,0.061248541688919064,0.001976218276680447,0.001785805704537779
1684451015234081000,7.1080810546875,0.05451251143217087,0.0008661335763521492,0.0009693016898818313
1684451015244092000,7.118091796875,0.07262041505277156,0.00005146989233326167,0.007648240597685798
1684451015254104000,7.12810400390625,0.07052431955635548,0.007940894268173723,0.0006419968311209231
1684451015264115200,7.138115234375,0.06453998444974422,-0.007861024831840768,0.0014556239021010697
1684451015274126000,7.1481259765625,0.06558978576362133,-0.003791135911270976,-0.00359076363411732
1684451015284138000,7.158137939453125,0.0642448008954525,-0.0002468509005382657,0.001050093574821949
1684451015294149000,7.168149169921875,0.0678349343419075,0.002450936816073954,0.005149290788266808
1684451015304161000,7.1781611328125,0.07336977211534977,0.008647298105014488,-0.0010996683375909923
1684451015314172000,7.188171875,0.0673860215306282,0.006293716149614192,-0.002448406932270154
1684451015324184000,7.19818408203125,0.06753799722194671,-0.004091717159887776,0.0029725952031556513
1684451015334195200,7.2081953125,0.06588964549303054,0.007470112118381075,0.005330529106687754
1684451015344207000,7.21820703125,0.05361877746284008,0.003989476061542518,0.010331059074029326
1684451015354218000,7.228218017578125,0.06169920806586742,0.006650991454953328,0.0012085081400815397
1684451015364230100,7.238230224609375,0.06094985100328922,0.0036453159661032257,0.000052296442817896604
1684451015374241000,7.248240966796875,0.06379179643094539,0.00483905122873839,0.0038488757141865787
1684451015384253000,7.2582529296875,0.06738134535551071,0.001696282523870468,0.0033966932335868475
1684451015394264000,7.26826416015625,0.058550973168015476,0.013260070863785221,0.0005651322026271373
1684451015404276200,7.278276123046875,0.06304068580269813,0.0028422559549100695,0.0007783274287357926
1684451015414287000,7.288287109375,0.06363923621773719,0.007436849169596098,-0.003582096270471811
1684451015424299000,7.298299072265625,0.06618541356921195,0.005208523861947469,-0.009252424391312524
1684451015434310000,7.308309814453125,0.06050152271389961,0.0036847026949981226,-0.0012380082292016595
1684451015444322000,7.318322021484375,0.06678747111558914,-0.0043877774970140304,-0.00112476624622941
1684451015454333200,7.328333251953125,0.06289923150539398,-0.00444220653141383,0.01045365340723656
1684451015464342800,7.3383427734375,0.06574409954249859,0.0022309282566886396,-0.0027442206742241976
1684451015474353700,7.348353759765625,0.06334931336045264,0.006566957300156355,-0.0018693375358358024
1684451015484365800,7.35836572265625,0.06544423981308936,0.0019942973560653624,0.0011723408481571823
1684451015494377000,7.368376953125,0.07053308738470077,0.008055743686342612,-0.004301286523649469
1684451015504388900,7.378388916015625,0.07786416092514992,-0.004790252784104086,0.002840118796750903
1684451015514399700,7.388399658203125,0.06768821934759617,-0.006704507173900492,-0.006604695494659245
1684451015524412000,7.398411865234375,0.05945932018458843,-0.004384142501512542,-0.003162784013012424
1684451015534422800,7.4084228515625,0.06050912149846553,0.003870594355650246,-0.0019027831477113066
1684451015544434700,7.4184345703125,0.0624538258254528,0.0017931852933950722,0.0023315573532599956
1684451015554445800,7.42844580078125,0.07172960369288921,-0.0015985943030565977,-0.0017522322284989058
1684451015564458000,7.4384580078125,0.07262509122788906,0.0019469099838053806,0.002755299190664664
1684451015574468900,7.44846875,0.06574351502060889,0.0027598155355779454,-0.0006158577428665012
1684451015584480800,7.458480712890625,0.06709434510767459,0.0035727119541959836,0.009365191450249404
1684451015594491600,7.46849169921875,0.06155892281234264,0.011340094552678055,0.004374013833142816
1684451015604503800,7.47850390625,0.06664777038395404,0.0016700292711844668,0.005291046479670331
1684451015614515000,7.488514892578125,0.07233458384871483,0.006202032977901398,0.006585059212427586
1684451015624526800,7.49852685546875,0.07128712062239646,0.005067398358206264,0.00573649782538414
1684451015634538000,7.5085380859375,0.06784428669214249,-0.002091620250698179,0.007788745046919211
1684451015644550000,7.5185498046875,0.06949146937727928,0.00036633539462927725,0.004692496064631268
1684451015654560800,7.528560791015625,0.07757189998030663,0.003520552508695982,0.004958252595039085
1684451015664572700,7.53857275390625,0.06200725110173225,-0.012809436452877706,0.009580240706726908
1684451015674583800,7.548583740234375,0.07622165441513061,0.002731498189968988,0.0015062398444861172
1684451015684595700,7.558595703125,0.06380348686873913,-0.001464177101314999,0.0008841076244600117
1684451015694606800,7.56860693359375,0.06634732613265514,0.007784794957586563,0.003651069853454828
1684451015704619000,7.578618896484375,0.06380407139062881,0.00982800492271781,0.006584301160601899
1684451015714630000,7.5886298828125,0.059765025132894514,0.005774249719618819,0.0014754245811142027
1684451015724641800,7.598641845703125,0.06500117222070693,0.006009067689068615,0.005000977491913363
1684451015734652700,7.608652587890625,0.07876724724471569,0.0022137944587972015,0.00866018498605117
1684451015744664800,7.618664794921875,0.0735293465912342,0.0000739100530045107,0.003619752266583964
1684451015754676000,7.628676025390625,0.060359483894705766,0.002067120563681237,-0.0035344303369987755
1684451015764688000,7.63868798828125,0.06140694712102413,0.0006950056599918752,0.0066324054854921995
1684451015774698800,7.64869873046875,0.06664601681828498,-0.0008080969459144398,0.0033862175053451207
1684451015784711000,7.6587109375,0.06484978105127812,0.006099504185188561,0.0026142376190051433
1684451015794721800,7.6687216796875,0.06469897440373897,0.008047263552364892,0.009029748950805515
1684451015804732700,7.678732666015625,0.060957449787855146,0.00020570603939704595,-0.004834662747988477
1684451015814744800,7.688744873046875,0.05781622915267944,0.0007798206995008513,-0.0013825130001176148
1684451015824756000,7.698755859375,0.06454875227808952,-0.005991358502442017,0.00010037336824461817
1684451015834768000,7.708767822265625,0.06814180833399296,-0.006016401612153276,0.001703762577427551
1684451015844778800,7.71877880859375,0.06080956574976444,0.005253664478193968,-0.006415219070855528
1684451015854791000,7.728791015625,0.06051029054224491,0.0052167300012893976,0.0011377901245839892
1684451015864801800,7.7388017578125,0.0624538258254528,-0.0071941629875218495,-0.00013552688001655042
1684451015874813700,7.748813720703125,0.06619476591944694,0.0045603941175621,-0.0005351571894716471
1684451015884824800,7.758824951171875,0.0645493367999792,0.004336248239176348,0.0016745730155613273
1684451015894837000,7.7688369140625,0.06634674161076545,-0.0006708986986195668,-0.0016889668670948593
1684451015904848000,7.778847900390625,0.0652986938625574,0.001897846677689813,-0.0013233575582504273
1684451015914859800,7.78885986328125,0.05691723448634147,0.005819440568215213,0.010480413549998775
1684451015924870700,7.79887060546875,0.07083353163599967,0.00010230959700420498,0.004288052582740783
1684451015934882800,7.8088828125,0.05886252333521843,-0.00607858469474595,0.0006407547221053392
1684451015944894000,7.81889404296875,0.05437456426620483,-0.0029076128087006507,0.00009516747016459703
1684451015954905900,7.82890576171875,0.06784194860458373,-0.0028317619603592903,0.004033648563409224
1684451015964916700,7.838916748046875,0.06440320632755756,0.006878183240373618,-0.0032339495530817656
1684451015974929000,7.848928955078125,0.06260872412621975,0.007846265654126182,0.0028247294313739984
1684451015984939800,7.858939697265625,0.06410626920759678,0.005439793600863777,0.006044495195476338
1684451015994951700,7.86895166015625,0.06649930182397365,0.0059867416928289455,0.001456126225600019
1684451016004962800,7.878962890625,0.06634966422021389,0.0035895671908743676,-0.0011499554864130913
1684451016014974700,7.888974609375,0.06380699400007725,0.0018971434247912838,0.007381095827789977
1684451016024985900,7.89898583984375,0.0673988810122013,-0.006332139330706559,0.00509419046700932
1684451016034996700,7.908996826171875,0.06829787567853927,0.005212597248866222,-0.0031440336467698214
1684451016045007600,7.919007568359375,0.06530804621279239,0.004483794350549578,-0.002527079925360158
1684451016055019800,7.929019775390625,0.06411211442649364,0.00395100721467752,0.010863750311778858
1684451016065031700,7.93903173828125,0.061118193307518956,-0.007157484238944016,0.0036216793621890245
1684451016075042800,7.949042724609375,0.0636608635276556,0.0054642202226445075,0.0034888832953758535
1684451016085054000,7.959053955078125,0.06306289763450622,0.002423861579480581,0.005167821958800778
1684451016095065900,7.96906591796875,0.06470891127586365,0.003765462613897398,0.01090669440436177
1684451016105076700,7.97907666015625,0.06650456252098083,0.007248450458026491,-0.002082669759262353
1684451016115088600,7.989088623046875,0.06470832675397396,0.003695278887939639,-0.0007643080365378409
1684451016125099800,7.999099853515625,0.05752689081728458,0.002046388302906416,0.002573357619345188
1684451016135112000,8.00911181640625,0.06395896969139575,0.002500105153466575,0.002433044966356829
1684451016145123800,8.019123779296875,0.06425532228946686,-0.000053269123774953185,0.005999952800851315
1684451016155135000,8.029135009765625,0.056470075240731235,0.0034402218480594454,0.006823955135373398
1684451016165145900,8.039145751953125,0.06185761349797248,0.0040010203688638285,0.004471802518656477
1684451016175157800,8.04915771484375,0.0629068302899599,0.003843162926030345,-0.006404578945832327
1684451016185168600,8.059168701171876,0.06305646789371967,0.007998305277526378,-0.010597153531154617
1684451016195180800,8.069180908203125,0.06200900466740131,0.006942425849311985,-0.0016572382882703094
1684451016205192000,8.07919189453125,0.07353285372257232,0.004327229249081574,0.007752714752312749
1684451016215203800,8.089203857421875,0.07862170129418372,-0.001251301535614766,0.0008192804936319589
1684451016225214700,8.099214599609375,0.056775195667147636,-0.0017368519962765276,0.008322039072867483
1684451016235227000,8.109226806640624,0.05542845723330974,-0.001982355756522156,0.006376503628818318
1684451016245237800,8.11923779296875,0.06380874756574631,-0.0011114729398163034,-0.0012118874072562901
1684451016255249700,8.129249755859375,0.061864043238759034,0.0040610297606792295,0.006169856874505057
1684451016265261800,8.13926171875,0.05961831013858318,0.0037965107727097346,0.00534035638095811
1684451016275273000,8.14927294921875,0.06874678848981856,0.012522764998604543,0.008517187185632064
1684451016285283800,8.159283935546876,0.06515607052147387,0.0004489082447020337,0.005848872158676385
1684451016295295700,8.169295654296874,0.06530512360334396,-0.007595195236196741,0.012185043777106329
1684451016305308000,8.179307861328125,0.06500526387393474,0.004098366096382961,0.004378854405041784
1684451016315318800,8.18931884765625,0.05497895990014076,0.0008396200287621468,0.0034372261733748018
1684451016325329700,8.19932958984375,0.0687456194460392,0.0068489206132711835,-0.0005370934182312339
1684451016335341800,8.209341796875,0.06021686055362224,0.006625318157579749,0.0020249938884284347
1684451016345353000,8.21935302734375,0.052585927283763885,0.0043571677296189585,0.0042591187492012975
1684451016355364900,8.22936474609375,0.06635024874210357,-0.0025344001487130298,0.007386438723187893
1684451016365375700,8.239375732421875,0.06081424192488193,-0.0015812595757655798,-0.003825896697398275
1684451016375388000,8.249387939453126,0.059767947742342946,0.0090401927130064,-0.002311793206864968
1684451016385399800,8.25939990234375,0.07024082643985748,-0.00024338486839551478,0.00017925642388872803
1684451016395410700,8.26941064453125,0.06126140117049217,0.01015936946866568,0.006033243149099871
1684451016405421800,8.279421875,0.06365268022119999,0.007607493028766475,0.008412356837978587
1684451016415434000,8.28943408203125,0.07293021165430545,0.0011170121980365365,0.0035897498539648946
1684451016425444900,8.29944482421875,0.06365268022119999,0.0078119980583433056,-0.004291888507641852
1684451016435457800,8.309457763671874,0.061407531642913814,0.006389838034426793,0.0034942079244647175
1684451016445470000,8.319469970703125,0.06918810251653194,0.00563830728107132,0.0010253153265919535
1684451016455480800,8.329480712890625,0.06394903281927108,-0.008060648190323262,0.0054610784174874425
1684451016465491700,8.33949169921875,0.06140519355535507,0.0045639423480955885,-0.003649517217185348
1684451016475502800,8.3495029296875,0.06963584628403187,0.0016023982619168236,0.004542392669990659
1684451016485514800,8.3595146484375,0.06859013662338256,-0.00548978392216377,0.0029476616912987082
1684451016495526000,8.36952587890625,0.0624538258254528,0.0013014014547690748,0.006040704936347901
1684451016505537800,8.379537841796875,0.0594604892283678,-0.006829544625943526,0.002541884768847376
1684451016515548700,8.389548583984375,0.060357730329036706,0.003883864829177037,-0.006446171331545338
1684451016525560600,8.399560546875,0.06604512831568718,0.0008372591083170846,0.0005732150443829596
1684451016535571700,8.40957177734375,0.06679273181259632,0.007512604119814932,-0.0015066599695943296
1684451016545583600,8.41958349609375,0.0655956309825182,0.0014947731689782813,-0.005562164171785116
1684451016555594800,8.4295947265625,0.06948737772405147,-0.008208107536728494,-0.00104132574647665
1684451016565607000,8.43960693359375,0.07158113513290881,0.0008942180265206843,0.0045423652705270795
1684451016575617800,8.44961767578125,0.06858721401393413,0.005410727336583659,0.008004625420458614
1684451016585629700,8.459629638671874,0.06484627391994,0.0027167572785634546,0.0076091598294675345
1684451016595640600,8.469640625,0.05856207908391952,0.00609111994933337,0.0018726620040833948
1684451016605652700,8.47965283203125,0.0685883830577135,0.0059977060448378324,0.006461158838123083
1684451016615663900,8.489663818359375,0.07367372349798679,0.0020046041209483517,-0.0017827186983078718
1684451016625675800,8.49967578125,0.06903495778143405,0.007544245933671481,-0.0014920286560431123
1684451016635686700,8.509686767578126,0.06334755979478358,0.006382234683283605,0.0023708025182597337
1684451016645698800,8.51969873046875,0.06080372053086757,0.0005090044014854357,0.003577721489453688
1684451016655709700,8.529709716796875,0.06694061585068703,-0.0047369288614019745,-0.0014509568601381033
1684451016665721600,8.5397216796875,0.06170388424098491,0.004631847351999022,0.0026995869480539113
1684451016675732700,8.549732666015625,0.05856207908391952,0.0024127008646493775,0.0072247544886078685
1684451016685744600,8.55974462890625,0.07427227391302585,0.004960732246492989,0.0038987427379004653
1684451016695755800,8.569755859375,0.06649170303940773,0.009235751817724666,0.0014865578964818268
1684451016705767700,8.579767578125,0.05915946045517921,0.007328370126709342,0.0022591679704841226
1684451016715778800,8.58977880859375,0.06379647260606289,0.004764593186462298,-0.0010913480338174849
1684451016725790700,8.599790771484376,0.05930851353704929,0.012849718230916187,-0.0014506280665751545
1684451016735801600,8.609801513671876,0.06245265678167343,0.0027347906921757386,0.005682913607778027
1684451016745813800,8.619813720703124,0.05751578490138053,-0.0021215221986174582,0.004702359871519729
1684451016755825700,8.62982568359375,0.06858896757960319,0.006420689830416813,0.0037539639723487197
1684451016765836800,8.6398369140625,0.07622165441513061,0.0010315076053608208,0.002101228329259902
1684451016775847700,8.64984765625,0.07203121698796748,0.0035579025441315024,0.0012881401143968105
1684451016785859800,8.65985986328125,0.06843991449773311,0.01392424299409613,-0.0011714457990135998
1684451016795871700,8.669871826171875,0.05990998656153679,0.0022533455844735728,0.0009504417257849126
1684451016805882600,8.679882568359375,0.06290156959295272,0.002085007846821099,0.0025755495764315127
1684451016815893800,8.689893798828125,0.051527942663431164,-0.0014169860918773337,0.00359542154292576
1684451016825906000,8.699906005859376,0.07561901234686375,-0.0007148611379321665,-0.0012848795782309025
1684451016835917800,8.709917724609374,0.059757426348328584,0.0008460406363941729,0.005133800958190113
1684451016845928700,8.7199287109375,0.06918576442897319,0.008836477701296098,0.00848724870509468
1684451016855940900,8.72994091796875,0.07322773329615592,-0.0008139832640066743,0.004068254085909575
1684451016865951700,8.73995166015625,0.06784136408269405,-0.002431492330087349,0.0006779631936457008
1684451016875963600,8.749963623046876,0.0732289023399353,0.001530488369753584,0.00018227949803695083
1684451016885974500,8.759974609375,0.07053367190659046,0.004082141047366894,0.005271921654092147
1684451016895986700,8.769986572265625,0.060956280744075775,0.0030321479372447356,0.003843167492607608
1684451016905997800,8.779997802734375,0.0660439592719078,-0.0013601413381053133,0.003264682618062943
1684451016916009700,8.790009765625,0.0639478637754917,0.008995326091395691,0.004630463679088279
1684451016926020600,8.8000205078125,0.06215396609604358,0.008503460054378955,0.0018374628265388309
1684451016936032800,8.81003271484375,0.07173018821477889,-0.005365477122482844,-0.0014971888883505017
1684451016946043600,8.820043701171874,0.07053484095036983,-0.0017183390920516102,0.011030238585639745
1684451016956055600,8.8300556640625,0.06559680002629757,0.0011906208569416776,0.0077845255295280365
1684451016966067000,8.84006689453125,0.06350128905177116,0.013808955184509976,0.008613204039167613
1684451016976078800,8.850078857421876,0.06529694029688835,-0.000981868910510093,0.012505032979091628
1684451016986089700,8.86008984375,0.06514613364934921,0.008354489170899614,0.003458268961403519
1684451016996101600,8.8701015625,0.07068214046657086,0.010090870809718034,0.005685005100164562
1684451017006112800,8.88011279296875,0.0679874945551157,0.008005967994173989,0.002154255424439907
1684451017016124700,8.890124755859375,0.06424538541734218,0.002185545611847192,0.007461111394595354
1684451017026135800,8.9001357421875,0.07097849306464195,0.003914670959394425,0.0031337314484640956
1684451017036147700,8.910147705078124,0.061551324027776716,0.008260646008141338,-0.0056305167002603405
1684451017046158800,8.920158935546874,0.06723579940497874,0.008728482715599239,0.002778734865179285
1684451017056170800,8.930170654296875,0.06902969708442687,0.014257959327334537,0.0038315227205865084
1684451017066181600,8.940181640625,0.06962824749946595,0.008407835926488041,-0.0015503255813848226
1684451017076193800,8.95019384765625,0.06558686315417289,0.011042449613241478,-0.0031901469439733774
1684451017086204700,8.96020458984375,0.061546063330769535,0.01224654643968679,0.008883444948447868
1684451017096216600,8.970216552734374,0.057058688783645624,0.008657029481162317,0.006820886395452544
1684451017106227700,8.980227783203125,0.0700789138764143,0.009055677976505831,0.008663125861808656
1684451017116240000,8.990239990234375,0.05885784716010093,0.007809130247822031,0.005511219435837119
1684451017126250800,9.000250732421875,0.059008069285750385,0.01521246987346094,0.005130421691015363
1684451017136262700,9.0102626953125,0.0654424862474203,0.008368951521092094,0.0030669041567947712
1684451017146273800,9.020273681640624,0.06753682817816734,0.0007585267497226595,0.005285831448435783
1684451017156285700,9.03028564453125,0.05616378577053546,0.005669976494391448,0.009943612392712384
1684451017166296800,9.040296875,0.06379705712795257,-0.0024964473250787705,0.0056941199883818626
1684451017176308700,9.050308837890626,0.06739128222763538,0.009820958694000728,0.002445603053830564
1684451017186320000,9.06031982421875,0.07083353163599967,0.004712388075189665,-0.0030825675168074666
1684451017196331800,9.070331787109374,0.06080898122787475,0.005353092564945109,-0.002233275477401912
1684451017206342700,9.0803427734375,0.06050970602035522,0.012645418697316198,0.006587479498377069
1684451017216354800,9.090354736328125,0.056768181404471395,0.012091287379316053,0.003149193879077211
1684451017226365700,9.10036572265625,0.05796645127832889,-0.0024719978704117237,-0.00014800276909954845
1684451017236377600,9.110377685546876,0.055873278391361234,-0.005992276384471916,0.002204213779699057
1684451017246388700,9.120388671875,0.06530103195011615,0.011614883772912435,0.000989504227694124
1684451017256401000,9.13040087890625,0.07502922976016999,-0.0038597076354548333,0.006164112120307982
1684451017266411800,9.140411865234375,0.06784896286725997,0.013117849381500854,0.010732552547007798
1684451017276423700,9.150423583984375,0.06365969448387622,0.005203665023739449,0.006522396639222279
1684451017286434600,9.1604345703125,0.060515551239252084,-0.0047945636330405245,0.002568681444227695
1684451017296446700,9.17044677734375,0.06380816304385661,0.007714428568538278,0.0075711567734833805
1684451017306457900,9.180457763671875,0.05064239200055599,0.007385835934989154,0.008491258159931748
1684451017316469800,9.1904697265625,0.06306348215639591,0.0065261092665372415,0.004008961646724492
1684451017326480600,9.200480712890625,0.0675520257472992,0.0025723347060382365,0.003364553662808612
1684451017336492800,9.210492919921874,0.06365794091820716,-0.0010486048706341534,0.0016585899951402096
1684451017346503700,9.220503662109374,0.06889584157168865,-0.002363464028597809,0.00025219379593618215
1684451017356515600,9.230515625,0.06799801594913006,0.006452692403877153,-0.00022960750479251145
1684451017366526700,9.240526611328125,0.06889467252790928,0.01542565596641507,0.0021926877386867997
1684451017376539000,9.250538818359376,0.0679956778615713,0.01347355835083872,-0.0025290344204287976
1684451017386549800,9.2605498046875,0.06634732613265514,0.006607864699279889,0.002133842824073508
1684451017396561700,9.270561767578124,0.06440086823999881,0.007485410152212716,0.0037422096024733033
1684451017406572800,9.28057275390625,0.07173311082422733,0.013529069664049893,0.009814168193610385
1684451017416584700,9.290584716796875,0.06889058087468147,0.011336012032604776,-0.0011679021350573747
1684451017426595600,9.300595703125,0.05766600702702999,0.00175366156718228,-0.001541429888876155
1684451017436607700,9.310607666015626,0.06514671817123889,0.002706569244689308,-0.0005229278955608606
1684451017446619000,9.320618896484374,0.07726561051011085,0.003431102393264882,-0.00037889804868027565
1684451017456630800,9.330630859375,0.06409925494492054,0.0070901865898165845,0.002849882138939574
1684451017466644500,9.34064453125,0.07217968554794787,0.004402075450425036,0.006744779818784445
1684451017476656400,9.350656494140624,0.0655956309825182,0.0014894713727757335,0.004768383445590735
1684451017486667500,9.36066748046875,0.06634498804509639,0.003072950305091217,-0.0006122501468285918
1684451017496679400,9.370679443359375,0.06365151117742061,0.003092755550681613,0.009645515362126753
1684451017506690600,9.380690673828125,0.06993862862288952,0.0066217790602007874,0.009829648890532552
1684451017516702500,9.390702392578126,0.07068798568546772,0.005879463659762404,0.002243495477316901
1684451017526713300,9.40071337890625,0.06679916155338286,0.0006690218353644014,0.011505820208135991
1684451017536725500,9.4107255859375,0.06754559600651264,0.009386754828086123,0.007322123049013316
1684451017546736400,9.420736328125,0.06530161647200584,0.01841758605770301,0.013386391524039209
1684451017556748300,9.430748291015625,0.061112932610511775,0.0031895121897337958,0.009882520722085609
1684451017566759400,9.440759521484376,0.06231120248436928,-0.001974656507256441,-0.0016576218807604164
1684451017576771600,9.450771484375,0.06261223125755787,0.004332330115884542,0.0012717552351765335
1684451017586783500,9.460783447265625,0.06336158832013607,0.015568553302134386,0.006300031725969165
1684451017596794400,9.47079443359375,0.059469257056713104,0.012482528886338695,-0.0005115023192483932
1684451017606806500,9.480806640625,0.06829729115664959,0.011207860174868255,-0.0015719802907668053
1684451017616817400,9.4908173828125,0.06964344506859779,0.0056524865034734825,0.0028131394582800564
1684451017626829300,9.500829345703124,0.07009060431420802,-0.0006006053748074918,-0.0014872702825348824
1684451017636840400,9.51084033203125,0.06096212596297264,0.010650714915874413,0.006215595712373033
1684451017646852600,9.5208525390625,0.0663490796983242,0.00871302941814065,0.0059866914604790504
1684451017656863500,9.530863525390625,0.06305822145938873,0.009814451321400701,0.005091596651123837
1684451017666875400,9.54087548828125,0.06904431013166903,0.004547205842426047,0.008046345670334994
1684451017676886500,9.550886474609374,0.07024199548363685,0.007442310796002857,0.007107667447580024
1684451017686898400,9.5608984375,0.06829495306909084,0.00842636709702201,-0.0007184687339700758
1684451017696909300,9.570909423828125,0.06350713427066802,0.003717349155852571,0.00012404650477692485
1684451017706921200,9.580921142578125,0.06485328818261624,0.00854235359292943,0.0007541337023954838
1684451017716932600,9.5909326171875,0.06635083326399326,0.012966407979722134,0.011145042338036
1684451017726944500,9.600944580078124,0.07473053907454014,0.009076455903053284,0.005159519921336323
1684451017736955400,9.610955322265625,0.06335866571068763,0.014293633428914472,0.003995590708497912
1684451017746967600,9.620967529296875,0.06650163991153239,0.012449142639967612,0.008597842073254286
1684451017756978400,9.630978515625,0.0641051001638174,0.0025588541699573396,0.005759677771572024
1684451017766990300,9.640990234375,0.0688935034841299,0.005347110348730348,0.0018476919596083462
1684451017777001500,9.65100146484375,0.05991583178043365,0.007653775289328768,0.0038636440250556913
1684451017787013600,9.661013671875,0.0636567718744278,0.013714847160270436,0.0008027220844756812
1684451017797024500,9.6710244140625,0.05946574992537498,0.009941740096034482,-0.0014960563771892338
1684451017807036400,9.681036376953125,0.06679682346582412,0.0019413250598125159,0.007962485045474022
1684451017817047300,9.69104736328125,0.06978957554101943,0.0027172459023306144,0.0019409414673224091
1684451017827059500,9.7010595703125,0.061409285208582874,0.0007738932822132483,0.005160040511144325
1684451017837070600,9.711070556640625,0.06814356189966202,0.010723442225367762,0.006909505393821746
1684451017847082500,9.72108251953125,0.0681441464215517,0.015833538080984727,0.0008437390814535319
1684451017857093400,9.73109326171875,0.06605097353458404,0.006522684333589859,0.00193703247718513
1684451017867105500,9.74110546875,0.07069090829491614,0.0008466708240564912,0.0034637762535829095
1684451017877116400,9.751116455078124,0.06395838516950607,0.012759204102982766,-0.0024660430536605415
1684451017887128300,9.76112841796875,0.06126666186749935,0.0009629039151361212,0.003708517395425588
1684451017897139500,9.771139404296875,0.06396072325706481,0.011047998004616238,0.0042344500988256185
1684451017907151400,9.7811513671875,0.06486030244529246,0.008378559599653817,0.00818451203200966
1684451017917162500,9.79116259765625,0.06904840178489685,0.009615805210452527,0.006698913116753101
1684451017927174400,9.80117431640625,0.06635550943911075,0.004687555028032512,0.000283584448043257
1684451017937185500,9.811185546875,0.06964812124371528,0.01217446301758755,0.012760989634692669
1684451017947197400,9.821197509765625,0.06066986501812935,0.016163674217648805,0.0010164652998559177
1684451017957208300,9.831208251953125,0.06680442225039004,0.00815540010195691,0.0015160214529838412
1684451017967220500,9.841220458984376,0.06276420694887638,0.007555388382193632,-0.000032733225822448726
1684451017977231600,9.851231689453124,0.06844985136985779,0.0035966545187868177,0.004436219748621806
1684451017987243500,9.861243408203125,0.06934767699241638,0.0056461983265820885,0.005470330303022638
1684451017997254400,9.87125439453125,0.05737666869163513,0.005005461870785802,0.014105928837088867
1684451018007266600,9.8812666015625,0.06740063457787036,0.014244889783207326,0.00027279819254763424
1684451018017277400,9.89127734375,0.07503156784772873,0.0017847142925718799,0.0013087536441627888
1684451018027289300,9.901289306640624,0.06784896286725997,0.004782676832424476,0.008061488440539687
1684451018037300200,9.91130029296875,0.0624625936537981,0.010877650972967967,0.0019511432009283452
1684451018047312400,9.9213125,0.05932020397484302,0.00880518294731155,0.008877837191568688
1684451018057323500,9.931323486328125,0.07712941690981388,0.006352291636168956,0.009911938612814992
1684451018067335400,9.94133544921875,0.07234335167706012,0.012916024932777508,0.003226515165297314
1684451018077346300,9.95134619140625,0.06710662006735801,0.005131449170899577,0.005921097144670784
1684451018087358500,9.9613583984375,0.06980009693503379,0.009049819057877174,0.008289671173226088
1684451018097369300,9.971369384765625,0.07219546763896942,0.011655092485714703,0.0116466351846233
1684451018107381200,9.98138134765625,0.0623188012689352,0.010197961613116785,0.005179923388548195
1684451018117392600,9.991392578125,0.0724924047589302,0.007260679751937277,0.008068612301070243
1684451018127404500,10.001404541015624,0.0733896458595991,0.00732852539033629,0.008489815121516585
1684451018137415400,10.01141552734375,0.06096855570375919,0.002923248769249767,0.008320678232843055
1684451018147427600,10.021427490234375,0.07249006667137145,0.007758413840737193,0.002003211314883083
1684451018157438500,10.0314384765625,0.06306289763450622,0.012719022789644078,0.00396088472129777
1684451018167450400,10.041450439453126,0.06635550943911075,0.005812846430647186,0.0018803703865036367
1684451018177461500,10.05146142578125,0.06321311976015567,0.00850684388813097,0.009077825876232236
1684451018187473400,10.061473388671875,0.07653262006044387,0.012116179791977629,0.008463822163734584
1684451018197484500,10.071484619140625,0.06246785435080528,0.012377068351022898,-0.0007002024249173701
1684451018207496400,10.081496337890625,0.058576692131161685,0.001771626482135616,0.003021941637061536
1684451018217508600,10.091508544921876,0.06650865417420863,0.010658487230376339,0.0050036626393441105
1684451018227519500,10.10151953125,0.06935469125509262,0.009341481781098991,0.008054154517455026
1684451018237531400,10.111531494140625,0.06935410673320293,0.017674101613485253,0.007138172183698043
1684451018247542300,10.121542236328125,0.0720475836008787,0.005718916502920911,0.01032767067370005
1684451018257554400,10.131554443359375,0.0638180999159813,0.010241394329466856,0.004163786882255226
1684451018267565600,10.141565673828126,0.07025368592143058,0.006569327353755943,0.00041006950507871805
1684451018277577500,10.151577392578124,0.06771043117940426,0.008246032960899173,0.0040155192516744135
1684451018287588400,10.16158837890625,0.0671112962424755,0.013143294350011273,0.006181647776998579
1684451018297600500,10.1716005859375,0.06292319690287113,0.0009143292327877133,0.005232420760765672
1684451018307611400,10.181611328125,0.06681435912251472,0.005529175217635929,0.0012446480325423181
1684451018317623300,10.191623291015626,0.06172668059468269,0.0022058303480502217,0.010959237442351877
1684451018327634400,10.201634521484374,0.0650198769211769,0.012023409774876198,0.00833093476537615
1684451018337646600,10.211646484375,0.06831307324767112,0.011792290733009575,0.007355029804771766
1684451018347657500,10.221657470703125,0.07100771915912628,0.013576552934432402,0.004678558870824054
1684451018357669400,10.23166943359375,0.07310206108987331,0.0073377133437898005,0.003950783452391624
1684451018367680500,10.241680419921876,0.06576864946186542,0.0071874455523677164,0.009494909643987193
1684451018377692400,10.2516923828125,0.07085574346780776,0.005625717227556742,0.010975339193781837
1684451018387703300,10.261703369140625,0.06277414382100105,0.008042043954553083,0.010585262163961306
1684451018397715500,10.271715576171875,0.05813537810444831,0.01594235961716622,0.006096325847413391
1684451018407726600,10.2817265625,0.06427168890237808,0.007455704567115753,0.004321580393007025
1684451018417738500,10.291738525390626,0.06666530604064465,0.012025103975040837,0.003193836738402024
1684451018427749400,10.301749267578124,0.06172726511657237,0.010692225103196687,0.0036135965204332023
1684451018437761500,10.311761474609375,0.077886372756958,0.011336687886039726,0.012866833762498572
1684451018447772400,10.3217724609375,0.07189969956278801,0.01459511885982938,0.004921674311161041
1684451018457784300,10.331784423828125,0.0558878914386034,0.008898336556903086,0.0070458999235183
1684451018467792000,10.3417919921875,0.0672597648024559,0.0091090566981351,0.006787586914049461
1684451018477803800,10.3518037109375,0.06666179890930653,0.01026740555355791,0.007871409228537232
1684451018487814700,10.361814697265626,0.06247253052592277,0.0008922361319884658,0.005237325264746323
1684451018497826600,10.37182666015625,0.06531681404113769,-0.0017800746500724926,0.00444515197374858
1684451018507837700,10.381837646484374,0.06801087543070317,0.001686679011886008,0.0072875449259765445
1684451018517849600,10.391849609375,0.06352233183979988,0.008776655539148486,0.006027544060675427
1684451018527860700,10.40186083984375,0.06771452283263206,0.013030139132007025,0.0019084274372085928
1684451018537873000,10.411872802734376,0.0650239685744047,0.0011380504194879904,0.00808749966463074
1684451018547883800,10.4218837890625,0.06876373962461949,0.005956826045177876,0.0051660409936681384
1684451018557895700,10.431895751953125,0.060384033814072605,0.006134105141111649,0.010108182704122736
1684451018567906600,10.441906494140625,0.05694412249326706,0.018648810130846686,0.005004996079904958
1684451018577918700,10.451918701171875,0.06622165392637253,0.009961686905520037,-0.0011000701963901518
1684451018587930600,10.4619306640625,0.07011398518979549,0.010864782358240335,0.0036804512115661053
1684451018597941800,10.471941650390624,0.05350362665057182,0.0003974200860597193,0.015434245698247103
1684451018607953700,10.48195361328125,0.0630810178130865,0.017046000876976174,0.01260644752695225
1684451018617964800,10.49196484375,0.07116261745989322,0.006783568326057866,0.008876668147789315
1684451018627976700,10.501976806640625,0.06398118152320384,-0.004514175789081492,0.005755449121026322
1684451018637987600,10.511987548828126,0.06338263110816478,0.007007348878262564,0.011838166568195446
1684451018647999700,10.521999755859374,0.06368190631568431,0.005825564348325133,0.006667458532564342
1684451018658010600,10.5320107421875,0.07520400180518627,0.016062446899455973,0.0017335183948744086
1684451018668022500,10.5420224609375,0.06188625507056713,-0.0008113437823485583,0.0014876082092523575
1684451018678033700,10.55203369140625,0.06547814208269119,0.004931757313758134,0.0014053367532789705
1684451018688045800,10.5620458984375,0.07340718151628971,0.010369948046002537,0.00934556430117227
1684451018698056700,10.572056640625,0.07146130814552307,0.008215838752035052,0.010548693013237789
1684451018708068600,10.582068603515625,0.07625029598772526,0.00929064664300531,0.005214492378430441
1684451018718079700,10.592079833984375,0.06068623163104057,0.011580730341561138,0.005164972414588556
1684451018728091600,10.602091552734375,0.06547346590757369,0.003505820730444975,0.005346786121744662
1684451018738102800,10.612102783203126,0.0602361497759819,0.004106608768342994,0.005742215180117636
1684451018748114700,10.62211474609375,0.0671200640708208,0.0025721794424112886,0.000544262944534421
1684451018758125800,10.632125732421875,0.06547580399513245,0.009518349885079078,0.0024363694346044213
1684451018768137700,10.6421376953125,0.07340718151628971,0.0015934386373264715,0.008927503285882994
1684451018778148600,10.652148681640625,0.0663747986614704,0.003293684950261377,0.00437886353819631
1684451018788160800,10.662160888671876,0.0653296735227108,0.012024788881209678,0.013832153397006913
1684451018798171600,10.672171630859374,0.0651812049627304,0.009766890419204718,0.007101831361837685
1684451018808183600,10.68218359375,0.06622925271093845,0.005617328425124287,-0.0015771953220013529
1684451018818194700,10.692194580078125,0.06308744755387306,0.008479828017042017,0.005867732122773304
1684451018828206800,10.702206787109375,0.058598903962969774,0.007504576076986268,0.010064060434605926
1684451018838217700,10.7122177734375,0.059494391497969625,0.005827372712921351,0.0064974813936743885
1684451018848229600,10.722229736328124,0.06263502761125564,0.012967732287128456,0.011659942190768196
1684451018858240500,10.732240478515624,0.06218669932186603,0.01078139209083747,0.007970613553002477
1684451018868252700,10.742252685546875,0.06847206320166588,0.002041470099193975,0.009643022010941058
1684451018878263800,10.752263916015625,0.07161620644629,-0.0000977110537001863,0.006931890755565837
1684451018888275700,10.762275634765626,0.07460954304337501,0.012683006194769404,0.005101633987948298
1684451018898287900,10.772287841796874,0.07475859612524509,-0.0017465514063835143,0.003280930499965325
1684451018908298800,10.782298828125,0.06742576901912689,0.004651561266044155,0.005781359880417585
1684451018918310700,10.792310546875,0.059196285334229465,0.009925770775345153,0.010458420913899317
1684451018928321500,10.802321533203125,0.06054243924617767,0.0026218729361891747,0.005262834165338426
1684451018938333700,10.812333740234376,0.06951952642798423,0.003995704872929491,0.007898014107672498
1684451018948344800,10.8223447265625,0.06877075388729571,0.0003038920171326026,0.005959355928981677
1684451018958356700,10.832356689453125,0.06263561213314534,-0.0032568281051702794,0.003071498133521527
1684451018968367600,10.84236767578125,0.061139820617437356,0.007419400277873501,0.00576522159636952
1684451018978379800,10.8523798828125,0.061140989661216734,0.009679499830119311,0.007602446960890665
1684451018988390700,10.862390625,0.06398527317643166,0.005711249219696037,0.0013365914991591125
1684451018998402600,10.872402587890624,0.07191606617569923,0.001062779526459053,0.0015169713010545819
1684451019008413700,10.88241357421875,0.06802373491227627,-0.0030488935760688033,0.005748288727877662
1684451019018425600,10.892425537109375,0.07101414889991282,0.003133434620941989,0.003967844185046851
1684451019028436700,10.902436767578125,0.06876900032162665,0.02250324336956255,0.0070242634804453695
1684451019038449000,10.912448974609376,0.057846624290943144,0.016643233328941277,0.0025479491834528743
1684451019048459800,10.922459716796874,0.06787351278662682,0.007964813999878242,-0.004265557623142376
1684451019058471700,10.9324716796875,0.06443126337826252,0.0033296604459406806,0.0009530081422068178
1684451019068482600,10.942482666015625,0.07011983040869235,0.007620037416508421,-0.005310363101493567
1684451019078494700,10.95249462890625,0.0644318479001522,0.005712285832734778,0.00579634738699533
1684451019088505900,10.962505859375,0.06981880163550376,0.005212172557180747,0.004866172131104395
1684451019098517800,10.972517822265624,0.07550619962215423,0.006942165554407983,0.005315779062127694
1684451019108528600,10.982528564453125,0.06772679779231548,0.006336011788225732,0.006932575742155313
1684451019118540800,10.992540771484375,0.07027239062190055,0.0029669235141947864,0.00031484723598696287
1684451019128551700,11.0025517578125,0.06802782656550407,0.009293450521444901,0.006653530471911653
1684451019138563600,11.0125634765625,0.06713058546483516,0.010174608136992901,0.017298523466475306
1684451019148574500,11.022574462890624,0.07745558012425899,0.013273930425778962,0.0016522241864353417
1684451019158586600,11.032586669921875,0.058900517258048055,0.0026118629988282917,-0.0010655925380531697
1684451019168598500,11.0425986328125,0.06548398730158805,0.006906833946122787,0.007852092606713995
1684451019178609700,11.052609619140625,0.0677303049236536,0.010130161640490404,0.008255905900942162
1684451019188621800,11.062621826171876,0.06413958695530891,-0.0018552359452471137,0.0040966125307139
1684451019198632700,11.0726328125,0.07326864982843398,0.009109476823243312,0.005071047053439542
1684451019208644600,11.08264453125,0.07476385682225227,0.008435856444574893,0.0030678174722474066
1684451019218655500,11.092655517578125,0.07416355284154415,0.0022704200168605893,0.0003773454124107957
1684451019228667600,11.102667724609375,0.07551146031916141,0.009501750376727432,0.0076923172014299775
1684451019238678800,11.1126787109375,0.06713175450861454,0.0051307870171964165,0.007019349843310192
1684451019248690700,11.122690673828124,0.07206804186701775,0.011247256036917678,0.0015451014169957488
1684451019258701800,11.132701904296875,0.06787760443985462,0.007532838623668067,-0.0007718063564039766
1684451019268713700,11.142713623046875,0.07341185769140719,0.009645825889380647,0.006763320122472941
1684451019278724600,11.152724609375,0.0764051942884922,0.007504315782082266,0.010024888334842398
1684451019288736500,11.162736572265626,0.07386193954646587,0.005688096672971732,-0.00010125015107914805
1684451019298748000,11.172747802734374,0.06443360146582126,0.005603934654011391,0.005375080634467303
1684451019308759800,11.182759765625,0.0674251844972372,0.000823189483769238,0.007342599581461399
1684451019318770700,11.192770751953125,0.06817337251603603,0.009777722340472974,-0.0013124617049004882
1684451019328782800,11.202782958984375,0.06787526635229588,0.013376436385605484,0.006481936764670536
1684451019338793700,11.212793701171876,0.07281213823258877,0.0041496761585120105,0.010144121667183936
1684451019348805600,11.2228056640625,0.072662500628829,-0.0029614390549017114,0.003129703727317974
1684451019358816500,11.23281640625,0.06069149232804775,0.003596047164010815,0.008753233564365654
1684451019368828700,11.24282861328125,0.07281330727636813,0.005966977546433918,0.004558686217665672
1684451019378839800,11.25283984375,0.07161503740251064,0.006637857978744432,0.006372156247263774
1684451019388851700,11.262851806640626,0.06129004274308681,0.010527467562118545,0.009075633919145912
1684451019398864000,11.27286376953125,0.07056815869808196,0.010208642837335354,0.005331524620531126
1684451019408874800,11.282874755859375,0.06772329066097736,0.0020891314660897477,0.008103911943314597
1684451019418886700,11.29288671875,0.07026712992489338,-0.007168663220084272,0.007954922793526203
1684451019428897500,11.3028974609375,0.07415770762264728,0.020896415527700444,0.009227326482674107
1684451019438909700,11.31290966796875,0.06652560530900954,0.015246034216345287,0.0009101553811691701
1684451019448920800,11.3229208984375,0.05679974558651447,0.0011014356029918416,0.002017139375535771
1684451019458932700,11.3329326171875,0.07071487369239329,0.004978993988968432,0.004632281176839024
1684451019468948000,11.342947998046874,0.07490472659766674,0.00857010011638049,0.0027338362775277346
1684451019478959900,11.3529599609375,0.06532791995704174,0.0050049412809778,0.007583239936921745
1684451019488970800,11.362970703125,0.0705669896543026,0.011813379186810925,0.004367666290747001
1684451019498983000,11.37298291015625,0.052910921454429626,0.010312336107250302,0.0068752377980388696
1684451019508993800,11.382993896484376,0.07760171059668064,0.011829759499453939,0.00632713892860338
1684451019519005700,11.393005615234374,0.07071954986751079,0.0065241045391187065,0.011728550447570159
1684451019529017000,11.40301708984375,0.06607844606339931,-0.0031111908230930566,0.005609199917595833
1684451019539029000,11.413029052734375,0.07191548165380954,0.013954510268196463,0.0066108238413464275
1684451019549039900,11.423039794921875,0.07356324886083603,0.007895511623332277,0.004473209024453535
1684451019559051800,11.4330517578125,0.056502808466553686,0.0013278099710820241,0.012561064882110803
1684451019569063000,11.44306298828125,0.07311375152766704,0.008025540344323963,0.003646201882092282
1684451019579074800,11.45307470703125,0.06608136867284774,0.0024972784421406686,0.003058172861067578
1684451019589085700,11.463085693359375,0.07266659228205681,0.006376101770019158,0.008570616139611228
1684451019599097900,11.473097900390625,0.08299392502903938,0.009998721847124397,0.006624432241590693
1684451019609109000,11.48310888671875,0.0764098704636097,0.010939299766020849,0.00574638903173618
1684451019619121000,11.493120849609374,0.06070084467828273,0.016081475826911627,0.011476347518479452
1684451019629131800,11.5031318359375,0.06249883401095867,0.013916863405238835,0.005589463170664385
1684451019639144000,11.51314404296875,0.06175298407971858,-0.00011791359151247888,0.005862297895830124
1684451019649155800,11.52315576171875,0.05921031385958194,0.007381821913574822,0.003515451641893014
1684451019659166700,11.533166748046876,0.06579378390312195,0.015292937531415373,0.006446783252898603
1684451019669179000,11.543178955078124,0.0698345837265253,-0.001603211112669669,0.009634318114677444
1684451019679190000,11.55318994140625,0.06415010834932326,0.00919246979842428,0.00873496725531295
1684451019689202000,11.563201904296875,0.06938859352469444,0.009385704515315592,0.005939555249968543
1684451019699212800,11.573212890625,0.07357903095185757,0.005859571649204008,0.0020766144778113812
1684451019709225000,11.583224853515626,0.0654997693926096,0.010104054518276825,0.012542223184322937
1684451019719235800,11.59323583984375,0.06519932514131069,0.005909397573722526,0.011291054079448803
1684451019729247700,11.603247802734375,0.07058510983288288,0.008520548186497763,0.0006472940607462078
1684451019739259000,11.6132587890625,0.05981120236217975,0.001451235421351157,0.008232680288981645
1684451019749271000,11.62327099609375,0.0678910484433174,0.00412545046613086,0.004642729505617171
1684451019759282000,11.633281982421876,0.06400163978934288,0.008337656767107546,0.0015809855811297893
1684451019769293800,11.6432939453125,0.0654991848707199,0.004695432373811491,0.016329934162646532
1684451019779304700,11.6533046875,0.06789280200898647,-0.0011858624834334478,0.013875517614698036
1684451019789316900,11.66331689453125,0.07088613860607147,0.013498277233564294,0.002885446642665192
1684451019799327700,11.67332763671875,0.0734293933480978,0.007886122740479186,-0.0027607516839168963
1684451019809339600,11.683339599609376,0.07567454192638397,0.0037157508538104593,0.004627787664812058
1684451019819351000,11.69335107421875,0.06400280883312225,0.004163540287083015,0.005938568869279697
1684451019829363000,11.703363037109375,0.05667115077078342,0.001914153925096616,0.013199673312902449
1684451019839374800,11.713374755859375,0.06505261014699935,0.007380780733958817,0.010452283434057607
1684451019849386000,11.723385986328125,0.06415420000255108,0.008511880822852253,0.0030577984017319975
1684451019859398000,11.73339794921875,0.057421676877141,0.0024288026160793376,0.004711182498792186
1684451019869408800,11.74340869140625,0.0655038610458374,0.006059199574263766,0.005938961594924331
1684451019879420700,11.753420654296875,0.06969488299489021,0.006328349071578122,0.010785634441114961
1684451019889432000,11.76343212890625,0.07044248649179935,0.0133730114526581,0.008527635514410213
1684451019899444000,11.77344384765625,0.05862345388233661,0.0013705942334607242,0.012166339076636359
1684451019909454800,11.783454833984376,0.06894844854176044,0.0020232083567185326,0.005055411092890426
1684451019919467000,11.793467041015624,0.06924597018361091,0.0057313193267676974,0.008643626576894894
1684451019929478000,11.803477783203125,0.06909867066740989,0.005263710948172956,0.0063272393933031705
1684451019939489800,11.81348974609375,0.0593733954668045,0.0109713754047174,0.01822149266344495
1684451019949500700,11.823500732421875,0.07912555916309356,0.0100551967081381,0.008909090846357867
1684451019959512800,11.833512939453126,0.08122048561573028,0.009551220108219422,0.005892656501475722
1684451019969524000,11.84352392578125,0.055930561536550516,-0.006730326601746492,0.012070468353573232
1684451019979536000,11.853535888671875,0.05967091710865497,0.005467681688209995,0.014317470962228252
1684451019989546800,11.863546630859375,0.07703121723234653,0.0011249489093199372,0.008768513331888243
1684451019999559000,11.873558837890625,0.07194295418262481,0.005166999974893406,0.011980652911961077
1684451020009569800,11.88356982421875,0.07403846515715122,0.0078831818647217,0.0107781269880943
1684451020019581700,11.893581787109374,0.06281681391894817,0.0016827608885942025,0.006324828240508213
1684451020029592800,11.9035927734375,0.06281681391894817,-0.0009364953988231718,0.010886848059576005
1684451020039604000,11.91360400390625,0.06431260543465614,0.003629538441658951,0.008942171132052317
1684451020049614800,11.92361474609375,0.07104571308195591,0.006488316273107193,0.006810839925473555
1684451020059626800,11.933626708984375,0.06670739161670207,0.00937665812575724,0.007260099796624854
1684451020069638000,11.943637939453126,0.07044833171069621,0.010237521871947684,0.013930471805483102
1684451020079650000,11.953650146484375,0.06925064635872841,-0.0005114018545486033,0.012719589045224711
1684451020089661000,11.963660888671875,0.06805354552865028,0.005181576489517465,0.007517965281521901
1684451020099672800,11.9736728515625,0.07119710425138473,0.0026788090215064584,0.006366977748647332
1684451020109683700,11.98368359375,0.06461363420784473,-0.0009646300813416018,0.007843160381587222
1684451020119696000,11.99369580078125,0.06805529909431934,0.0031747393122874197,0.010993030114099382
1684451020129706800,12.003706787109374,0.07089724452197552,0.005170826766639948,0.01118668952267617
1684451020139718700,12.01371875,0.0728407798051834,0.0065378499366808675,0.0017841434704139827
1684451020149730000,12.02372998046875,0.07119359712004661,0.0016871493693441152,0.010400352317420765
