time,seconds_elapsed,z,y,x
1682096288985398300,0.030398193359375,-2.5163679041445253,-0.8833195428222417,-1.827766485171765
1682096289005527300,0.05052734375,-2.3197060988813636,-1.3491028248816728,-6.055773618403077
1682096289025655300,0.0706552734375,1.6134236233979462,0.3943132060855627,-5.718755247944593
1682096289045784300,0.090784423828125,3.833935773077607,2.711679463842511,-1.7675456790953874
1682096289065912300,0.110912353515625,5.073613177600502,4.0707828737348315,0.6314430692069232
1682096289086041000,0.131041015625,5.265086766570806,5.078506210339069,-0.26776480149030685
1682096289106169300,0.15116943359375,3.809492821216583,5.9763043603688475,-3.3584625793918965
1682096289126298000,0.171298095703125,3.8715602780729528,6.370886446523666,-4.801285013717413
1682096289146426000,0.191426025390625,5.450942515659332,5.87519785554409,-4.155041996394098
1682096289166555100,0.21155517578125,7.169048164281248,6.245487211963534,-2.660092192207277
1682096289186683100,0.23168310546875,3.77204893348515,7.937795571506023,-3.3300212055444716
1682096289206812200,0.251812255859375,2.0494985804140566,8.982154402068257,-3.12018223106116
1682096289226940200,0.271940185546875,6.107330202639103,3.1536008087992666,-5.578185916781425
1682096289247068200,0.292068115234375,5.3855561435133215,-0.886094268232584,-8.736706061804295
1682096289267197200,0.312197265625,-2.2716022854477167,8.958844838151336,-3.4944752701640125
1682096289287325200,0.3323251953125,-7.743051582562923,7.2616194804728025,-2.4539257687568665
1682096289307454500,0.352454345703125,-3.0571055971622467,-3.0590076313912866,-14.713263520151376
1682096289327582500,0.37258251953125,-4.778327916499972,-3.010578239265084,-16.87416729656458
1682096289347711200,0.392711181640625,-8.417530222028493,-1.1232022117830813,-3.588869710129499
1682096289367839200,0.412839111328125,-8.759638024580479,1.585024042865634,2.3225755168378353
1682096289387968300,0.43296826171875,-4.830333998069166,-3.2730776675730944,1.9956354728013277
1682096289408096300,0.45309619140625,-1.179463466578722,-4.436692992156744,6.0113388488709925
1682096289428225300,0.473225341796875,0.16978052033931015,-7.110041848561167,10.408874719637632
1682096289448353300,0.493353271484375,-0.4166737987145781,-9.978367333620787,8.883009552705287
1682096289468482300,0.513482421875,-0.42459786971211433,-9.643624506878853,9.853156899631022
1682096289488610300,0.5336103515625,-3.646851066716015,-10.591379989254474,9.248233442428708
1682096289508739300,0.5537392578125,-3.376977310247719,-8.825479739278554,10.00961704288721
1682096289528867300,0.573867431640625,-1.7359983020566403,-8.948179067230225,7.085735090300441
1682096289548995300,0.593995361328125,-5.951274548530578,-12.569313216626643,-2.9417198070943353
1682096289569124000,0.6141240234375,-10.047303507202862,-12.378037780576944,-8.634431097722054
1682096289589252400,0.63425244140625,-13.222916241323947,-6.369681746909022,-9.86271149443984
1682096289609381000,0.654381103515625,-14.707124871265888,-6.134809745717048,-19.659505286335943
1682096289629508900,0.6745087890625,-10.460493847715854,-6.343267787235975,-25.61352942583561
1682096289649638000,0.694637939453125,-8.81174230582714,1.5715367847830055,-23.662587081241607
1682096289669766000,0.714765869140625,-14.749482834523915,7.978417504751682,-26.077174526822567
1682096289689895000,0.73489501953125,-13.465083660221099,9.295929844105244,-18.734436267542836
1682096289710023000,0.75502294921875,-7.41328654423356,9.596178865092993,-10.019617043375968
1682096289730152000,0.77515185546875,-2.6538167651996014,9.704546885353325,-0.36167175019979475
1682096289750280000,0.795280029296875,2.6954145577400923,9.632000704580545,6.735664930567145
1682096289770409000,0.815408935546875,5.84347351450324,9.489328263658285,8.663889247396588
1682096289790537000,0.835536865234375,5.175934318912029,8.50929431349039,11.091026962471007
1682096289810665700,0.855665771484375,5.927657526099681,9.530770865637063,12.810028683149813
1682096289830794000,0.8757939453125,6.472184674528241,13.79062143624425,17.743230935019255
1682096289850923000,0.895923095703125,4.6079812867105,16.791536944150923,22.313388979291915
1682096289871051000,0.916051025390625,3.0995752041012046,16.114214021170138,20.825261714601517
1682096289891178800,0.9361787109375,2.079573400682211,14.260176053535938,13.461307648813724
1682096289911308000,0.95630810546875,2.3847768292069436,13.475557123440502,6.842938141328096
1682096289931436000,0.97643603515625,3.2511107504367827,13.475083660709856,1.588483243408799
1682096289951565000,0.99656494140625,6.204980429530143,16.635345680963994,-1.4432131872087717
1682096289971693000,1.016693115234375,7.776863835793733,16.219547203779218,-3.9795074425727126
1682096289991822000,1.036822021484375,-2.023929254871607,12.622927902436256,-19.597735351121425
1682096290011950000,1.0569501953125,-9.58905588134527,9.896943434387445,-34.53970708913803
1682096290032079000,1.0770791015625,-9.50877063075304,4.893429628929495,-27.725166190254686
1682096290052207000,1.09720703125,-6.164370186722278,-1.5421765425249934,-14.164711938512324
1682096290072336000,1.1173359375,-7.312025141108036,-5.1577136025667185,-4.402822286736965
1682096290092463900,1.1374638671875,-6.409767673581838,-7.972761670947074,-2.7085142778098583
1682096290112593000,1.157593017578125,-2.225705042147636,-11.13460657647848,-3.0631045453161
1682096290132721000,1.177720947265625,-1.9775766690194605,-12.355746453791856,-1.6493530149132012
1682096290152850000,1.197849853515625,-5.2823500360608096,-10.619280388092994,3.0281320161342618
1682096290172978000,1.21797802734375,-7.881586193028092,-9.75176222551465,9.44427974614203
1682096290193107000,1.23810693359375,-8.800368678897618,-9.355221406507491,11.456142715644836
1682096290213235000,1.25823486328125,-3.663162442308664,-11.231205833011865,13.22274556093216
1682096290233363000,1.278363037109375,-3.431393083307147,-15.882442908602952,16.141375584340096
1682096290253492000,1.298491943359375,-7.008401090729236,-8.537384681943058,13.932981742477416
1682096290273620000,1.318619873046875,-9.723577749037743,-7.056627069237828,7.989830294647812
1682096290293748700,1.338748779296875,-9.220177560767532,-7.223493455696105,3.4580133792072534
1682096290313877000,1.358876953125,-12.255538359111547,-5.164967519217729,-0.9056909491062164
1682096290334006000,1.379006103515625,-9.565551087117194,-0.005215396560728549,-6.95945673481822
1682096290354133800,1.3991337890625,-6.260427006942034,-0.8540378456931561,-14.57584242388606
1682096290374263000,1.419262939453125,-10.541756418907642,-2.1049173930361866,-23.8089981241703
1682096290394391000,1.43939111328125,-11.595725373858214,7.281923432832956,-25.86420046918392
1682096290414520000,1.45952001953125,-9.656691493722796,10.244807608509063,-21.544331190943716
1682096290434648000,1.47964794921875,-5.4438394056558606,9.642001874113083,-12.717784114694595
1682096290454776000,1.499776123046875,-1.904532037205249,9.470492630285024,-6.857706671392918
1682096290474905000,1.519905029296875,0.7238574412710964,8.497200555592775,-3.52719271389544
1682096290495033000,1.540033203125,2.110838453648239,8.23829126073122,0.36537586541473865
1682096290515162000,1.560162109375,4.268689126101136,8.967432049232722,6.051840370607375
1682096290535290000,1.5802900390625,5.40316603448391,11.067552563381195,11.539900026261806
1682096290555419000,1.6004189453125,4.06673739773631,13.648463374584912,14.341736730891466
1682096290575547000,1.620546875,5.192780239772796,15.109833565253018,15.55791518640518
1682096290595676000,1.640676025390625,6.717308020621537,16.450394771760703,18.755065214073657
1682096290615804000,1.660803955078125,5.494561877155304,15.451529864394663,18.878158509778974
1682096290635932700,1.6809326171875,3.175879276102781,15.501554416757822,13.60689568492174
1682096290656060700,1.701060791015625,3.500281910616159,13.638745113646983,6.364808003392815
1682096290676189700,1.721189697265625,3.3824142406046387,13.054786703062057,1.59465462552011
1682096290696317700,1.741317626953125,7.778894464838505,16.279048025017975,0.2856254523515701
1682096290716446700,1.76144677734375,4.614421548891067,14.784840563631057,-5.259342669960856
1682096290736574700,1.78157470703125,-1.5996774221181869,9.44554757412076,-24.092559045207498
1682096290756702700,1.80170263671875,-6.700857236558199,7.514981662601232,-34.189877752423286
1682096290776831700,1.821831787109375,-7.564583021116256,4.828067806702852,-24.920146179413795
1682096290796959700,1.841959716796875,-9.264912774550915,2.455138067156076,-12.952240520823
1682096290817088800,1.8620888671875,-10.751153202581404,-1.4300443474255502,-7.33933984901309
1682096290837216800,1.882216796875,-7.900860802340507,-5.500870037388801,-5.767078257086872
1682096290857345800,1.902345703125,-4.135943620431423,-9.482108833798765,-1.9746336013048886
1682096290877473800,1.922473876953125,-2.586696408867836,-13.173535832083225,2.2709943826824426
1682096290897602800,1.942602783203125,-3.2192975620687005,-14.001121797245741,6.315737975275516
1682096290917730800,1.962730712890625,-5.464255586218834,-13.690540767335891,7.831971975031495
1682096290937859800,1.98285986328125,-5.2164884476184845,-13.56912855658531,8.119093218898772
1682096290957987800,2.00298779296875,-4.29315195170641,-13.930990860921144,8.872453087377547
1682096290978115800,2.02311572265625,-6.0255719568848605,-13.481487682533263,8.127580476737021
1682096290998244900,2.043244873046875,-9.736127434009314,-12.261508665692805,5.48477814976573
1682096291018372900,2.063372802734375,-11.339951454412937,-10.024696538597345,3.498704870557785
1682096291038501600,2.083501708984375,-9.137069653970002,-8.764223598805069,2.7796874166637657
1682096291058629600,2.103629638671875,-7.032943995833397,-6.811031429457664,-2.3220400947868822
1682096291078758700,2.123758544921875,-9.441507358819246,-3.1048978604286908,-10.930412037622927
1682096291098886700,2.14388671875,-16.550536230945585,-0.7035577266946434,-20.440342359805104
1682096291119015700,2.164015625,-10.394640442579984,3.134260440774262,-28.65115173937082
1682096291139143700,2.184143798828125,-6.623106472879647,7.220878304761648,-28.78156792531013
1682096291159272700,2.204272705078125,-6.288066124495863,9.618225277206301,-19.589400068974495
1682096291179400700,2.224400634765625,-5.483581048935651,10.528103156608342,-10.908539228510856
1682096291199529700,2.24452978515625,-3.6974832295835016,10.552195979857444,-6.826195096319913
1682096291219657700,2.26465771484375,-0.39748365281522274,10.380444743967056,-1.664010485818982
1682096291239785700,2.28478564453125,2.866175029027462,10.391597421622276,3.3590520697176456
1682096291259914800,2.304914794921875,4.986959561020136,11.795297513610123,8.672357800534368
1682096291280042800,2.325042724609375,3.3856676894426343,14.786228218597174,12.914548211288452
1682096291300171800,2.345171875,1.6909177819669245,16.035521008205414,14.074316797316074
1682096291320299800,2.3652998046875,4.703389287632704,17.769716790884733,18.794534470152854
1682096291340428800,2.3854287109375,7.273975688698887,19.594889898562432,22.60029102745056
1682096291360556800,2.405556884765625,6.513561225533485,18.971614207589624,21.813374926328656
1682096291380685800,2.425685791015625,3.5405040308892723,16.987113292264937,13.397447463321685
1682096291400813800,2.445813720703125,1.9952257229566572,13.913321933239697,2.7000831340730187
1682096291420942800,2.46594287109375,3.6738720523715016,12.045537179803848,-2.682934430873394
1682096291441070800,2.48607080078125,7.1546122271716595,16.131643294876813,-4.38880603634417
1682096291461198800,2.50619873046875,-2.6302561491310597,15.331433996939658,-8.206970239794254
1682096291481327900,2.526327880859375,-7.779186725783347,12.324875514709948,-26.779823614239692
1682096291501456000,2.546455810546875,-8.757585183703899,5.67795445100069,-37.57712365096807
1682096291521584600,2.566584716796875,-4.793007014715672,0.5420009909518063,-27.530871114122867
1682096291541712600,2.586712646484375,-4.856653265196084,-1.7081585473641752,-17.544104200947285
1682096291561841700,2.606841552734375,-6.006970132267475,-4.106289071401953,-9.928430459541081
1682096291581969700,2.6269697265625,-6.659780545282364,-5.81277559390068,-3.061403586617112
1682096291602098700,2.6470986328125,-5.590007287478446,-8.560462190669774,0.5106418299615383
1682096291622226700,2.667226806640625,-5.226521181333065,-12.293833895236252,3.3320261156260966
1682096291642356700,2.687356689453125,-4.03165907009244,-14.453127898365258,3.9169834741204976
1682096291662484700,2.707484619140625,-1.779335924001783,-13.469320274877548,5.797585039031505
1682096291682613500,2.727613525390625,-1.7495137633204458,-13.010564114975928,9.784945533192158
1682096291702741500,2.747741455078125,-4.013237278217077,-13.740883299607038,11.135156027054785
1682096291722869800,2.767869873046875,-7.054072124058008,-13.913620039403439,8.882398142808675
1682096291742998500,2.78799853515625,-9.753409408199786,-13.709239622586965,5.751558031871914
1682096291763126500,2.80812646484375,-10.628830306726693,-12.476148610717058,2.351637945193052
1682096291783255800,2.828255859375,-5.302251837360859,-10.991081902641056,0.8843173216879368
1682096291803383600,2.848383544921875,-1.767928540933132,-9.176002318954467,-1.2873732216775418
1682096291823512800,2.868512939453125,-8.654863644897937,-7.737882070970535,-11.730540671539305
1682096291843640800,2.888640869140625,-16.86092203054428,-4.856313365717232,-24.82162150777578
1682096291863769900,2.908769775390625,-11.677218246674537,2.446435120740533,-28.83273463344574
1682096291883897900,2.92889794921875,-4.552253554269671,7.643936543816328,-26.819367689120767
1682096291904026600,2.949026611328125,-1.180473447338864,8.712420930853485,-20.220159978222846
1682096291924155000,2.96915478515625,-1.5359230350881814,10.156305149191617,-12.53987084904313
1682096291944283000,2.989282958984375,-2.4022423432707787,11.889750405764579,-5.681605374723673
1682096291964411600,3.00941162109375,-0.815371211233735,12.437904512518644,1.8067776192873715
1682096291984539600,3.02953955078125,0.9882207637548446,14.213948555368184,8.626751064613462
1682096292004668700,3.049668701171875,2.237234736421704,15.896718102192878,13.507238209861516
1682096292024796700,3.069796630859375,4.2058728967040775,16.368388688725233,16.825025372254846
1682096292044925700,3.08992578125,6.042157180982827,16.564850002980233,16.543322061783073
1682096292065053700,3.1100537109375,8.120470352470875,17.227875520539282,19.212035075080394
1682096292085182700,3.1301826171875,6.627622488999366,17.293144403785465,20.146900680744647
1682096292105310700,3.150310791015625,2.2522587025523184,17.36279603216052,15.162867236304283
1682096292125439700,3.170439697265625,-1.792586012327671,15.937397318583725,6.5299272539228195
1682096292145567700,3.190567626953125,0.4893185444910079,12.699792530930042,1.4390654198795556
1682096292165695700,3.21069580078125,7.228783378797769,14.54836989507079,0.7064554939627647
1682096292185824500,3.230824462890625,6.009024142187833,16.92082383379936,-5.43977522495687
1682096292205952800,3.250952880859375,-6.108744745612144,10.027559526813029,-26.403725863802432
1682096292226081500,3.27108154296875,-6.011544600576162,4.398854844410717,-38.89971665458679
1682096292246209500,3.29120947265625,-2.486173841410875,0.4560514309875667,-28.27361840317249
1682096292266338600,3.311338623046875,-3.3863036492586134,-0.8486123865783214,-17.514155637407303
1682096292286466600,3.331466552734375,-5.208761068236828,-3.148414930593967,-11.238714601206778
1682096292306595800,3.351595947265625,-5.3493105256557465,-6.333986748671531,-5.651749165642261
1682096292326723800,3.371723876953125,-4.164451922035217,-8.80836844547987,-0.17375497692823408
1682096292346852900,3.391852783203125,-3.515578848469257,-12.33391689929962,6.330775969931483
1682096292366980900,3.41198095703125,-3.150795103728771,-13.184644086074828,9.176262431195378
1682096292387108900,3.43210888671875,-3.181743199700117,-13.924427849143743,6.948224562186002
1682096292407238000,3.45223779296875,-3.607708850634098,-14.883016860222815,5.614304693388939
1682096292427366000,3.472365966796875,-4.374631965041161,-14.884499207735061,7.943421010172367
1682096292447494700,3.49249462890625,-4.9508723485946655,-13.324619542998075,10.121659367746114
1682096292467622700,3.51262255859375,-7.376142516231536,-12.017991001230477,9.39519335141182
1682096292487751700,3.532751708984375,-10.609098016774654,-11.447008976596592,3.937967809960246
1682096292507879700,3.552879638671875,-10.324050072050094,-11.927196047061681,-1.2464192799985407
1682096292528008700,3.5730087890625,-5.120538010382652,-9.751068398031592,-0.6134685827076435
1682096292548136700,3.59313671875,-1.3551812680125235,-7.258238605862855,-5.528075439700484
1682096292568265700,3.613265625,-5.94741085883975,-1.9180811084777116,-16.312694274032115
1682096292588393700,3.633393798828125,-6.9089481983304015,4.115823500205576,-24.81220602917671
1682096292608521700,3.653521728515625,-2.9677158336162566,8.01175103455484,-25.811698713052273
1682096292628650800,3.673650634765625,-1.157446865081787,8.631734698244928,-26.661404155564306
1682096292648778800,3.69377880859375,-4.131891714692116,11.606431476789712,-18.272364699482917
1682096292668907500,3.713907470703125,-3.012781302267313,15.133131438732146,-6.154311149522662
1682096292689035800,3.734035888671875,-1.4676339272379875,14.706022462981938,2.1394892324626444
1682096292709164500,3.75416455078125,-1.5506173308730125,12.77506725988388,5.328927078318595
1682096292729292500,3.77429248046875,-0.6712509826559573,11.327102494233847,9.882240370774268
1682096292749421600,3.794421630859375,0.5516763991286978,11.358092675781249,15.521840833461283
1682096292769549600,3.814549560546875,1.310325058197975,12.491869911462068,19.775642771553994
1682096292789678600,3.8346787109375,3.0362346585690974,13.71368549607992,20.265598371839523
1682096292809806600,3.854806640625,4.853322659468651,12.774735251450538,19.448504574596882
1682096292829934600,3.8749345703125,4.838061961972713,11.124276905643939,18.101491415470836
1682096292850063600,3.895063720703125,4.752082299131155,10.404444043713807,14.371011925214528
1682096292870191600,3.915191650390625,4.329567665433883,10.48543539674878,9.848444484156369
1682096292890320600,3.935320556640625,3.6068799985945224,11.84213408358693,8.770430052229761
1682096292910448600,3.95544873046875,3.184540721464157,16.907924604737758,2.987812280705571
1682096292930577400,3.975577392578125,-1.7417396221876142,17.939954115080834,-7.11841044845581
1682096292950705400,3.995705322265625,-6.221199742925167,16.58011070047617,-17.71263238313794
1682096292970834400,4.01583447265625,-6.813542535495758,15.62650999920368,-24.304904157292842
1682096292990962400,4.03596240234375,-7.587842316150665,9.643736150559782,-25.597195546150207
1682096293011091500,4.056091552734375,-5.43395747858882,4.126934969067573,-17.28807893708944
1682096293031219500,4.076219482421875,-4.467116187471151,0.14777414797544478,-11.936250291132927
1682096293051348700,4.0963486328125,-5.794584103649854,-5.211656205156445,-11.563360396826267
1682096293071476700,4.116476806640625,-3.9330911438345906,-10.471945800578593,-10.467971051728725
1682096293091604500,4.1366044921875,-0.8206919678650796,-15.868973186177014,-7.067867425176501
1682096293111733800,4.156733642578125,-1.5480232227265833,-17.499447897619007,-2.4510943447232245
1682096293131861800,4.17686181640625,-4.857938044309615,-15.729457163459061,-0.6034346799492836
1682096293151990500,4.196990478515625,-6.845421190315484,-16.74286731352806,-0.7914946610838174
1682096293172118800,4.217118896484375,-5.959100127589703,-17.876963698160647,0.6876344736367463
1682096293192247600,4.23724755859375,-7.209314123696088,-17.640099061846733,0.3145867584198713
1682096293212375600,4.25737548828125,-10.300839876854418,-16.472995895147324,-2.0114514660924674
1682096293232504600,4.277504638671875,-10.862219375884532,-15.108939246761798,-4.5484611762493845
1682096293252632600,4.297632568359375,-6.704761842781305,-11.139539941227435,-8.228977488940954
1682096293272760600,4.317760498046875,-2.3376257864534855,-2.3363240562051533,-12.894732919228076
1682096293292889600,4.3378896484375,-5.922338376903533,5.7255643434375525,-19.105204347389936
1682096293313017600,4.358017578125,-7.478540229910612,8.57936153692901,-23.56369766794443
1682096293333146600,4.378146728515625,-1.1954489712178706,16.773687983727456,-29.686679028701782
1682096293353274600,4.398274658203125,0.09504314966518432,18.68497168715,-22.539535822236537
1682096293373403600,4.418403564453125,-4.680795178508759,19.918780491900442,-10.716090072506665
1682096293393531600,4.43853173828125,-8.831135573083161,16.950943077731132,-1.576830799537897
1682096293413660400,4.458660400390625,-3.235425690048933,13.922479053163528,8.646824130827188
1682096293433788400,4.478788330078125,2.838143697285652,13.073552193808554,18.513311636674402
1682096293453917400,4.49891748046875,1.4627309576272964,10.937533852326869,21.927242128527162
1682096293474045400,4.51904541015625,0.43617724834680555,9.050999974757433,19.375054722982643
1682096293494174500,4.539174560546875,1.4316881691098213,6.930866600149869,19.51145290594101
1682096293514302500,4.559302490234375,4.40117159692049,7.690052982825041,21.47424234019518
1682096293534430500,4.579430419921875,5.5247816588521,9.776563489294052,19.872488696324822
1682096293554559500,4.5995595703125,1.3203669981323183,10.404686035776137,14.203463401710986
1682096293574687500,4.6196875,-3.6256653630852695,10.158680646151304,11.004463946783542
1682096293594816800,4.639816650390625,-4.037606288059056,9.784052968266606,11.264371605032682
1682096293614944800,4.65994482421875,-0.0943605376958847,9.205238934832812,9.012457770395278
1682096293635072500,4.680072509765625,5.644596955800056,12.563023761093616,5.395274404451251
1682096293655200500,4.700200439453125,4.16873646748662,18.65938365690708,-1.0624059439063072
1682096293675329800,4.720329833984375,-8.518145143944025,16.18086822129488,-7.458761178207397
1682096293695457800,4.740457763671875,-11.564052470743656,19.421565129745005,-19.678712675631044
1682096293715586600,4.760586669921875,-12.16407237381339,11.383968290793895,-26.45761410585642
1682096293735714600,4.780714599609375,-8.109885830092429,3.5517046393394467,-25.027646769189833
1682096293755842600,4.800842529296875,-3.800238670659065,0.6861907045692205,-18.19281360838413
1682096293775971600,4.8209716796875,-2.9779625023424625,-3.293055456718802,-12.243444601213932
1682096293796099600,4.841099609375,-2.0149849009156227,-7.51694273354113,-8.61739345368147
1682096293816228600,4.861228515625,0.7547860288243741,-12.205711375147104,-4.975367907425761
1682096293836356600,4.881356689453125,1.0132487489622086,-14.748805958175659,-1.0137041645795106
1682096293856485600,4.901485595703125,-0.6976410499967635,-15.309453635799883,0.6348007090717553
1682096293876613600,4.921613525390625,-2.9961551616370676,-14.728410820400715,1.649797251549363
1682096293896742700,4.94174267578125,-2.7243700185894966,-16.153159545636175,1.9601538250535726
1682096293916870700,4.96187060546875,-1.013634606474638,-18.013133917582035,3.2846348343759773
1682096293936999700,4.981999755859375,-2.3841513907849787,-18.07983604850173,2.8415257409393786
1682096293957127700,5.002127685546875,-6.433396386450529,-17.02163281698227,-1.053342347484827
1682096293977256400,5.02225634765625,-8.56975959584713,-14.589595054906606,-3.697831020107865
1682096293997384400,5.042384521484375,-4.690194290494919,-12.009715340316294,-3.9211417628437277
1682096294017512400,5.062512451171875,-1.031732573223114,-9.429784187799692,-6.486684909045696
1682096294037641500,5.082641357421875,-7.654579518383741,-2.2596850531607866,-11.119591378176212
1682096294057769500,5.10276953125,-16.48243592366576,5.268356582021713,-21.733047590160368
1682096294077898500,5.1228984375,-6.164971075224876,13.290285896241665,-30.879545582211016
1682096294098026500,5.143026611328125,-0.6724000796258449,12.294426600432395,-28.12807479072809
1682096294118155500,5.163155517578125,-4.650186105233431,13.200166649377346,-20.623136383235455
1682096294138283500,5.183283447265625,-7.326852123361825,17.0564866882205,-10.138242253756523
1682096294158412800,5.203412841796875,-7.316584411847591,16.696531094288826,0.306243292966485
1682096294178540500,5.22354052734375,-3.308518983310461,14.973084669160842,11.09613334569931
1682096294198669600,5.243669677734375,-0.9352467139363289,12.838976545214653,17.3171390273571
1682096294218797600,5.263797607421875,0.17504673377182334,11.529718823987245,18.02973433924913
1682096294238925600,5.283925537109375,0.4773544773876667,11.058866568100452,18.37163171392083
1682096294259054600,5.3040546875,0.8678956175886094,10.75729886572957,19.249615156412123
1682096294279182600,5.3241826171875,2.9261504820406437,11.121450157785414,21.897412807452678
1682096294299311600,5.3443115234375,3.1583962263822554,11.48534075307846,21.655490887749195
1682096294319439600,5.364439697265625,-0.8704992242157459,12.234016263133286,17.082142523002624
1682096294339568600,5.384568603515625,-4.204194734358787,12.193476162952184,12.86977266549468
1682096294359696600,5.404696533203125,-0.5551927732191979,11.596646580356358,11.791664125543832
1682096294379825700,5.42482568359375,6.369186656868457,13.13446989610791,7.492302213281393
1682096294399953700,5.44495361328125,5.839359649443626,16.325214732909203,3.181647338110208
1682096294420082700,5.465082763671875,-2.946403873257339,18.120058168774843,-11.952167991232871
1682096294440210700,5.485210693359375,-9.84823639436364,16.107257041639087,-26.7041607627511
1682096294460339500,5.50533935546875,-5.5972845850050446,8.308536178824305,-30.547127983546254
1682096294480467500,5.525467529296875,-1.1748878292262555,2.7642063544154167,-20.85581584281921
1682096294500595500,5.545595458984375,-0.38263022094592447,0.9163736711621284,-15.830385389107464
1682096294520724500,5.565724365234375,-2.6755273694872854,-4.054390541860461,-11.060048471361398
1682096294540852500,5.5858525390625,-2.894677485412359,-8.266836387214065,-6.947647054558992
1682096294560981500,5.6059814453125,-1.5742659174859523,-12.728399032211303,-3.6614439479529857
1682096294581109500,5.626109619140625,-0.9703811556816101,-16.46535502500534,-0.025562311279773712
1682096294601238500,5.646238525390625,-1.4548773215174675,-17.951608312517404,2.341404720470309
1682096294621366500,5.666366455078125,-2.57686007450819,-17.53152295179367,1.7107237216770648
1682096294641495600,5.68649560546875,-4.546620516818762,-17.714511036491395,-0.32553952958881854
1682096294661623600,5.70662353515625,-5.5619701105177395,-17.499916684174536,-2.6001088481485843
1682096294681751600,5.72675146484375,-5.773846436047553,-15.646977617692947,-2.973132597967982
1682096294701880600,5.746880615234375,-6.2403720609068865,-12.895649449551104,-2.859287607601285
1682096294722008600,5.767008544921875,-5.891621751600503,-9.769860776785016,-2.4251538477808237
1682096294742137600,5.7871376953125,-4.592162955331802,-6.210336403605342,-4.058573965024948
1682096294762265600,5.807265625,-5.791516532772779,0.5837433065295219,-11.18858132777214
1682096294782394600,5.82739453125,-9.303554347634314,7.194256255295873,-18.00803104148507
1682096294802522600,5.847522705078125,-8.195273956781625,11.08166058371067,-22.085572741830347
1682096294822651600,5.867651611328125,-6.714206547474861,16.596276237857342,-23.768189143919944
1682096294842779600,5.887779541015625,-8.279086212456226,17.08602491739392,-14.46105167710185
1682096294862908700,5.90790869140625,-7.781492080116272,16.824150927507876,-6.054392393177747
1682096294883036700,5.92803662109375,-4.803237024568021,15.201372031265496,-1.6592074694514274
1682096294903165700,5.948165771484375,-0.3076349665205926,11.35329725819826,3.088145463070273
1682096294923293700,5.968293701171875,3.233562234264612,8.241391564834117,12.299376331794262
1682096294943421700,5.988421630859375,3.8399908353328702,8.050249399775266,19.59462569466829
1682096294963550500,6.008550537109375,0.3035631139717996,8.28004775096476,18.58772594940662
1682096294983678500,6.028678466796875,-1.0618703757248817,7.565363357838988,19.103543136179447
1682096295003807500,6.048807373046875,1.7122632062040268,8.792698582661151,22.367265530908107
1682096295023935500,6.068935546875,2.5942028389751908,10.099133063161373,24.44383098194599
1682096295044064500,6.089064453125,0.5893475562773645,10.236614949703217,19.883578245615958
1682096295064192500,6.109192626953125,-2.372204932403564,8.74600346698165,11.973921557879446
1682096295084321500,6.129321533203125,-2.3581831290528177,7.417381704592704,6.473655331602692
1682096295104449500,6.149449462890625,1.2753892077647149,8.356847497528792,5.023166600432992
1682096295124578600,6.16957861328125,4.695726205658913,16.057463959944247,5.534869337624311
1682096295144706600,6.18970654296875,-2.825527084557712,17.15838755829334,-3.5969238372474908
1682096295164834600,6.20983447265625,-9.184170427840948,16.57240436388254,-26.322428221297262
1682096295184963600,6.229963623046875,-7.140003856104612,10.710073004174232,-31.37279320977926
1682096295205091600,6.250091552734375,-2.6937504239201546,7.542173620909452,-19.487247854489087
1682096295225220600,6.270220703125,-3.8694682742297646,3.611606442594528,-12.369793683844804
1682096295245348600,6.2903486328125,-4.715426931428909,-0.9228332225650548,-9.98415994554758
1682096295265477600,6.3104775390625,-3.060336834168434,-5.922894257220626,-7.183467150256037
1682096295285605600,6.330605712890625,0.8288752743206917,-11.183400125741958,-4.735556111744046
1682096295305734700,6.350734619140625,1.9126115910254418,-15.523332533323764,-1.007994554761052
1682096295325862700,6.370862548828125,-0.620681582826376,-16.708786180227992,1.2437749029695988
1682096295345991700,6.39099169921875,-3.71164151879549,-16.47575834559798,1.9121388589471577
1682096295366119700,6.41111962890625,-4.322048375844955,-16.04111838982105,1.8420277963668108
1682096295386247700,6.43124755859375,-5.143584539449215,-15.792093360114096,2.639376444175839
1682096295406376700,6.451376708984375,-6.432962671208381,-15.422486140739917,2.0420406656235457
1682096295426504700,6.471504638671875,-9.127451930797099,-14.155006537055968,-0.3619710254073143
1682096295446633500,6.491633544921875,-11.279675557148456,-12.750175979733466,-3.7276778768390413
1682096295466761500,6.511761474609375,-6.74250091406703,-10.863367376875877,-5.773038626796007
1682096295486890500,6.531890380859375,-1.4160405181229114,-5.92079757720232,-6.713196493649482
1682096295507018500,6.5520185546875,-7.113253796344995,1.2046978610783814,-14.086825565755367
1682096295527147500,6.5721474609375,-13.569825306677817,8.720863180506228,-27.335788102483747
1682096295547275500,6.592275634765625,-4.860477207398414,14.956689999198913,-31.7381123765707
1682096295567404500,6.612404541015625,2.501087332904339,16.62432978143096,-24.131752406954764
1682096295587532500,6.632532470703125,-0.8636720816094428,16.069927135676146,-14.311485385012626
1682096295607660500,6.65266064453125,-4.999724350047111,15.435063882762194,-5.665082694467902
1682096295627789600,6.67278955078125,-5.935328791379928,14.335469487190245,1.3830290598809718
1682096295647918300,6.69291845703125,-1.569212141227722,13.075506835007667,11.207914973795413
1682096295668047400,6.71304736328125,0.848425412638858,12.024805357420444,18.615363313394784
1682096295688175400,6.73317529296875,0.9617140112318098,10.349076961278914,20.59906577181816
1682096295708304400,6.753304443359375,1.4689688291035592,8.479335813078285,20.97881795310974
1682096295728432400,6.773432373046875,3.2643641997635364,8.768495869296789,22.417270209527015
1682096295748561400,6.7935615234375,4.468799610513448,10.183605828571318,23.347927257585525
1682096295768689400,6.813689453125,3.3118913823530076,10.238953037261963,21.55259165428877
1682096295788818400,6.833818359375,0.29658056160807605,9.382448436129092,15.559477028894424
1682096295808946400,6.853946533203125,-2.3740251335680482,9.214115484249591,9.95437387909293
1682096295829074400,6.874074462890625,-1.0650069201849401,9.709981769883631,7.489104878544807
1682096295849203500,6.894203369140625,3.321536285793781,11.799758584672212,3.0457746403306722
1682096295869331500,6.91433154296875,4.414187730360031,14.95281812620163,0.18199907366037368
1682096295889460200,6.934460205078125,-4.943476977646351,19.026558096176384,-10.724743334561586
1682096295909588200,6.954588134765625,-11.904238365322351,18.444548481571672,-25.632930876398085
1682096295929717200,6.97471728515625,-7.741653406202793,10.197300007402896,-27.632079910278318
1682096295949845200,6.99484521484375,-2.96056713090539,4.525730873525142,-16.8448476785779
1682096295969974300,7.014974365234375,-2.8147815263986584,1.1266215187072752,-11.747089655280112
1682096295990102300,7.035102294921875,-4.70115875210166,-3.827949099883437,-8.584190272259711
1682096296010231300,7.055231201171875,-4.30131889154911,-8.606338391181826,-6.726696026691794
1682096296030359300,7.075359375,-2.5709096416711805,-14.416042322552203,-4.387943866556882
1682096296050488300,7.09548828125,-1.3729939880788324,-17.27323909535408,-2.81714767100811
1682096296070616300,7.1156162109375,-0.5230639430306852,-16.846044779407976,0.06671089874804019
1682096296090744300,7.135744384765625,-1.8349718865059315,-15.843554667282104,1.9528759430050848
1682096296110873300,7.155873291015625,-6.159354988908768,-15.764536660146712,1.4250409861803055
1682096296131001300,7.17600146484375,-9.239828602176905,-15.734471192228794,0.08389525778293609
1682096296151130400,7.19613037109375,-9.375746308141947,-14.957866057240961,-1.5827677883714437
1682096296171258000,7.216258056640625,-5.704801541393995,-12.808238877123593,-1.1991104163348674
1682096296191387400,7.236387451171875,-4.3761131435096265,-9.306869755792617,-1.5035539664030073
1682096296211515400,7.256515380859375,-8.34213508156538,-5.053427298662066,-7.889505295589566
1682096296231644400,7.27664453125,-10.181455957061052,1.2457216531231998,-14.622994635683296
1682096296251772400,7.2967724609375,-6.540345187562703,6.263526726523041,-21.395039624142644
1682096296271901400,7.3169013671875,-3.5866765839993953,14.615560686290264,-24.61223875262737
1682096296292029400,7.337029541015625,-3.2407325642853975,16.892527129119635,-22.838048813211916
1682096296312157400,7.357157470703125,-4.373568135201931,15.505962880849838,-13.342065183317661
1682096296332286500,7.377286376953125,-4.875623338603973,13.72601540082097,-6.2458566297978155
1682096296352414500,7.39741455078125,-3.9920542049348353,11.567235776954888,-1.6674270162642002
1682096296372543200,7.417543212890625,-1.720063212430477,9.734882402384281,5.5647080110490315
1682096296392671200,7.437671142578125,1.6606956621825695,8.513497025877237,13.372739723044633
1682096296412800300,7.45780029296875,1.8855963044583797,8.639000305333733,19.333370128941535
1682096296432928300,7.47792822265625,-0.5722175577782094,9.000710049456357,19.909657274246214
1682096296453057300,7.498057373046875,-0.47862157471403477,9.246798441189528,20.517055012607575
1682096296473185300,7.518185302734375,2.7528888415873047,9.992478861081599,23.804195692324637
1682096296493314300,7.538314208984375,3.3428935465991496,9.902271935933827,24.000206924724576
1682096296513442300,7.5584423828125,0.9482583173312247,8.82548967615068,17.629236307048796
1682096296533570300,7.5785703125,-1.4675849735297262,7.67024821215868,10.959711781865357
1682096296553699300,7.59869921875,-0.8385762918628752,7.48604081479907,9.736407419994473
1682096296573827300,7.618827392578125,2.7405586445853114,11.69397999638319,11.356413928914069
1682096296593956400,7.638956298828125,3.1031226674497128,19.32539958845377,8.26886000199616
1682096296614084400,7.65908447265625,-5.945403610670566,16.888240245580672,-10.082351439708471
1682096296634212900,7.679212890625,-8.939732725924253,16.093233192461728,-27.574478785181043
1682096296654340900,7.6993408203125,-5.851802951431274,13.690968637359141,-26.989276512014865
1682096296674470000,7.719469970703125,-3.859193548452854,7.0414710011601445,-20.926571048521993
1682096296694598000,7.739597900390625,-4.039095357573032,2.2831097678899765,-16.82006395045519
1682096296714727000,7.759726806640625,-3.4163024816811083,-2.6131127066284416,-12.76503335712552
1682096296734855000,7.77985498046875,-2.720154446721077,-7.493772870355844,-9.119154058051109
1682096296754984000,7.79998388671875,-2.4470574904225764,-12.328240022706984,-5.155841378954053
1682096296775112000,7.82011181640625,-2.706229966264963,-15.377009168678521,-1.925913117277622
1682096296795240000,7.840239990234375,-2.430521366163343,-16.79417547596097,-0.4920265613406896
1682096296815369000,7.860368896484375,-1.4718294792316853,-16.892116794753072,1.361739603614807
1682096296835497000,7.8804970703125,-2.5898247700214383,-16.997667419505117,2.14432732014358
1682096296855626000,7.9006259765625,-4.6595688506066795,-15.838734699779748,2.2783704644083977
1682096296875754000,7.92075390625,-6.785742674422264,-14.946665448790787,1.513514219403267
1682096296895882800,7.9408828125,-6.4866358092069625,-14.529678054082392,-0.3571703471273184
1682096296916010800,7.9610107421875,-4.417504307562113,-12.481662990224361,-1.8157371708124874
1682096296936139800,7.981139892578125,-5.178212785238027,-8.380431202211975,-4.830566637781262
1682096296956267800,8.001267822265625,-10.6254973629117,0.14450725513398646,-11.072724413061142
1682096296976396800,8.021396728515626,-12.97005324088931,6.907118644815683,-21.072280665183065
1682096296996524800,8.04152490234375,-2.783176427823305,11.533346366834639,-25.657522881340977
1682096297016652800,8.06165283203125,2.531319974082708,16.302954970306157,-22.73738946763277
1682096297036781800,8.08178173828125,-1.1793711121201516,14.536784671217202,-16.305798084777592
1682096297056909800,8.101909912109376,-6.339239262372255,15.191524006468057,-8.826057246905565
1682096297077038800,8.122038818359375,-6.844987475073337,13.825048606503008,-3.2825627042770384
1682096297097166800,8.142166748046876,-3.255188375139236,11.384316665840148,3.927390886366367
1682096297117295900,8.1622958984375,-1.0040566307902337,9.199479056131839,11.056014101278782
1682096297137424000,8.182423828125,-1.5553414367854594,7.812332624059915,14.63706875374317
1682096297157553000,8.202552978515625,-2.061145617457479,6.6978422726511955,16.29347285621166
1682096297177681000,8.222680908203126,-0.32786285796985026,6.873660027328133,19.799895753800868
1682096297197810000,8.242809814453125,1.8203413036070764,8.528940094202756,21.710157712960243
1682096297217938000,8.26293798828125,3.0979753676891324,8.688942440110445,21.16583690075874
1682096297238067000,8.28306689453125,1.6890275843061506,7.887207540041207,17.097030295532942
1682096297258195000,8.30319482421875,-1.473278070604801,7.474484817039966,13.405410989546775
1682096297278323000,8.323322998046875,-1.8826926919713616,7.583203550434112,12.569446487617492
1682096297298452000,8.343451904296876,1.7640027457915246,10.371807848525046,14.33303553804159
1682096297318580000,8.363580078125,3.5032629722535606,15.705144559979438,10.38912957020402
1682096297338709000,8.383708984375,-0.8237924180984496,17.862960891771316,0.2910579987943172
1682096297358837000,8.4038369140625,-4.7065492129683495,16.220470748364924,-13.387924432694911
1682096297378965800,8.4239658203125,-5.115723888099193,17.76968756479025,-20.810001017105577
1682096297399093800,8.44409375,-7.689045267087221,13.136335689979791,-27.080997348856926
1682096297419222800,8.464222900390626,-7.401542330425977,4.600464335209131,-23.03202357134819
1682096297439350800,8.484350830078125,-4.1896354631304735,0.5099181918621063,-16.496375601691007
1682096297459479800,8.504479736328125,-3.4433541547358035,-4.568914181691408,-11.575664582604169
1682096297479607800,8.52460791015625,-3.8012148222148414,-8.68277690321803,-7.115137125873566
1682096297499736800,8.54473681640625,-3.4327848299264905,-12.664409082859754,-2.452335284695029
1682096297519864800,8.56486474609375,-3.725779934263229,-16.09043333261013,-0.6924632089674473
1682096297539992800,8.584992919921875,-3.1290076348125933,-16.678220361572503,-1.1322533871144056
1682096297560121900,8.605121826171874,-1.7229519196093082,-16.82614064002037,-0.1896925507724285
1682096297580249900,8.625249755859375,-3.0137352419912813,-17.964879297500847,0.680059654468298
1682096297600379000,8.64537890625,-7.099315287363528,-17.5408273712337,0.05551145934164524
1682096297620507000,8.6655068359375,-11.543704094719885,-15.068941582894324,-0.5161567939907312
1682096297640636200,8.68563623046875,-11.379112082934379,-12.187211257338523,-0.0836906751215458
1682096297660764200,8.70576416015625,-6.341409007626772,-10.583495958006381,-2.938954434034228
1682096297680893200,8.72589306640625,-1.3141045767366886,-7.174903904572129,-9.798782919886708
1682096297701021200,8.746021240234375,-3.159118695437908,0.2698486220270395,-15.886908655840157
1682096297721149200,8.766149169921874,-6.413879200553894,6.103783323812484,-19.877877988147734
1682096297741278200,8.7862783203125,-1.0372376003801822,13.00203827869296,-23.1419230389595
1682096297761406200,8.80640625,-0.3707283323585987,16.425551422405242,-21.28077962323427
1682096297781535200,8.82653515625,-3.532593111634254,15.955785208189486,-14.628139597356318
1682096297801663200,8.846663330078124,-5.2292906460464,15.294996071380377,-8.391363515114783
1682096297821792000,8.8667919921875,-4.181926788449287,13.427155203843116,-0.5680342807441949
1682096297841920300,8.886920166015624,-1.64398418135643,11.61639523692131,6.467870318460464
1682096297862049000,8.907049072265625,-0.4844727849602699,9.681224461954832,11.868383792608975
1682096297882177000,8.927177001953124,-0.6947943553287536,8.366860357499123,14.832656792294978
1682096297902306300,8.947306396484375,-1.009921869561821,7.753405218794941,16.791814007526636
1682096297922434000,8.96743408203125,-0.45784211379662154,8.313219952726364,19.33949358025789
1682096297942563300,8.987563232421875,1.0031247567676007,9.236416747906803,22.042259669804572
1682096297962691300,9.00769140625,1.0071323849737643,8.583312320381403,20.75689603438377
1682096297982820400,9.0278203125,-0.5418892011404037,7.73612032199502,15.10084244954586
1682096298002948400,9.0479482421875,-2.4307635043561455,6.8403194832623,9.330611865907906
1682096298023077400,9.068077392578125,-2.0104399509623647,7.251533555266261,8.691810689023136
1682096298043205400,9.088205322265624,3.1644016042768954,12.46126200723052,9.649308397734165
1682096298063333400,9.10833349609375,5.7168555518031114,16.08339802714586,4.517481516095995
1682096298083462100,9.128462158203124,-2.687909881198406,12.621762365788221,-14.867894109892845
1682096298103590100,9.148590087890625,-9.888443317067622,15.05162570643425,-24.7029752546072
1682096298123719200,9.16871923828125,-9.489774838382004,13.009042019975185,-22.068039423227308
1682096298143847200,9.18884716796875,-7.9082608494639395,5.94159135890603,-15.337307272887228
1682096298163976200,9.20897607421875,-5.637305629748106,2.272944347706437,-12.774440652418136
1682096298184104200,9.229104248046875,-3.6467502366900444,-2.979436666548252,-9.917632002151011
1682096298204233200,9.249233154296874,-2.489991938394308,-7.996528915503621,-8.043402894881368
1682096298224361200,9.269361328125,-0.5099088395118713,-11.718978828561305,-4.675220008724928
1682096298244490200,9.289490234375,-1.0798480770945549,-14.102511795186995,-1.560067880785465
1682096298264618200,9.3096181640625,-2.990650134479999,-15.549294657576084,0.35396833621561524
1682096298284747000,9.3297470703125,-4.778932896655798,-15.277435864770412,1.0874895317584277
1682096298304875000,9.349875,-3.0685099114909766,-15.999888553810118,1.3182786475509405
1682096298325004000,9.370004150390624,-1.374297618023306,-17.737915292954444,0.5806915177434683
1682096298345132000,9.390132080078125,-1.9518635510921478,-16.39110788553357,0.6538122835338115
1682096298365260000,9.410260009765626,-4.546302536910772,-13.9696803647995,-0.6122989544063806
1682096298385389000,9.43038916015625,-6.964615725016594,-12.223093887102603,-3.660424541777372
1682096298405517000,9.45051708984375,-5.538491035252809,-9.866811330974102,-7.624020129469036
1682096298425646300,9.470646240234375,-4.308713093453646,-2.2158523411750792,-10.478381386584044
1682096298445774300,9.4907744140625,-8.055285640376805,6.324724999329447,-14.422241761714218
1682096298465903400,9.5109033203125,-7.165268061220646,10.464331818443537,-22.030744588577747
1682096298486031400,9.53103125,-2.18789465919137,14.351859480977058,-22.27199547715187
1682096298506160400,9.551160400390625,-0.9285247122049332,14.093206206703185,-15.589890871858596
1682096298526288400,9.571288330078126,-2.942770777451992,13.819577481615543,-8.078368409800529
1682096298546417200,9.591417236328125,-4.357928667521477,12.467648493397235,-3.429955159458518
1682096298566545200,9.611545166015626,-3.7787995767891407,10.178610504502057,0.8438923723191022
1682096298586674200,9.631674072265625,-1.7296365119397639,8.008741331344842,7.1974693721234795
1682096298606802200,9.65180224609375,-1.715035155135393,6.005419395694136,11.665393368846177
1682096298626931200,9.67193115234375,-2.2646458904385565,5.085713365238905,13.292668407464026
1682096298647059500,9.6920595703125,-0.9422166260141879,5.216279188781977,16.854754155564308
1682096298667188500,9.7121884765625,1.9319393918298184,6.08387333920598,21.974871310186384
1682096298687316500,9.73231640625,2.602106743967533,8.057097658234834,23.718219536614416
1682096298707444500,9.752444580078125,0.7058219452995806,8.664550926175712,19.70294461508989
1682096298727573500,9.772573486328126,-1.755328587079048,8.721436011958122,13.48227561804056
1682096298747701500,9.792701416015625,-2.3889015079215166,8.266194582179189,10.938791743433475
1682096298767830300,9.812830322265626,2.1470305877529086,8.774475528228283,11.531475896787644
1682096298787958300,9.832958251953125,5.310501779311895,12.179967862081527,6.904118293955921
1682096298808087300,9.85308740234375,1.0195898616172372,14.915408725261686,-1.8813859932869672
1682096298828215300,9.87321533203125,-4.31027142881155,15.608696110093593,-13.904437200516462
1682096298848344600,9.893344482421876,-4.226217181074619,14.752016152393818,-20.956500907361505
1682096298868472300,9.913472412109375,-1.7154584951139986,10.203771833765506,-22.12042193689346
1682096298888601600,9.9336015625,-1.4231377829074858,5.568546566298604,-15.831936710202694
1682096298908729600,9.9537294921875,-2.1311434289216993,2.9743963342934845,-10.508529856610297
1682096298928858600,9.973858642578126,-3.5069898838222024,-0.6906681422442197,-7.802930004942417
1682096298948986600,9.993986572265625,-4.6032782235860825,-5.65480972225666,-5.425103725525736
1682096298969115400,10.014115478515626,-5.57230211943984,-10.821055006325244,-2.1788106045037505
1682096298989243400,10.034243408203125,-6.822354787504673,-14.277922138106822,0.5163432564735412
1682096299009371400,10.054371337890625,-5.590064570623636,-16.401522896564007,1.2577291940420865
1682096299029500400,10.07450048828125,-3.706673082733154,-18.207541221916674,0.24184768542349336
1682096299049628400,10.09462841796875,-2.6279250758349892,-18.73759970000982,-0.2298690783381462
1682096299069757400,10.11475732421875,-3.7609050236582755,-17.68756925355196,-0.9340139572709798
1682096299089885400,10.134885498046875,-5.935985793983936,-15.7251702799201,-1.9495295551866292
1682096299110014500,10.155014404296875,-5.4085974118828775,-13.403386205720901,-1.3886895698606967
1682096299130142500,10.175142578125,-2.4212018952846526,-11.242428653293848,-1.91692784678936
1682096299150271500,10.195271484375,-1.569240198278427,-8.562536658856272,-6.193616739472747
1682096299170399500,10.2153994140625,-4.509885654139518,-1.5409855791747569,-11.596804401266574
1682096299190528500,10.235528564453125,-7.07180301105976,3.9631981128066776,-18.16942688757777
1682096299210656500,10.255656494140625,-6.118799106636643,7.171752747064828,-24.304817648053167
1682096299230785300,10.275785400390625,-2.1008201868504286,12.35288580366373,-22.683650863182542
1682096299250913300,10.295913330078125,-1.2747411191195248,13.580073144447804,-15.094676912653446
1682096299271041300,10.316041259765624,-2.2460814752221108,14.334122748756409,-8.963087882548571
1682096299291170300,10.33617041015625,-2.267408340889215,13.389032686197757,-4.398357708543538
1682096299311298300,10.35629833984375,-2.027287917649746,11.709604266494512,2.2225042002797126
1682096299331427600,10.376427490234375,-2.4528455723047253,9.82399393351078,9.096938134589792
1682096299351555300,10.396555419921874,-2.054423761856556,8.315235968723893,15.567717618495225
1682096299371684600,10.4166845703125,-2.0968787557482718,8.15893306185603,17.876113803333045
1682096299391812600,10.4368125,-1.4756348628640175,8.223225793546439,18.340572558790445
1682096299411941600,10.456941650390625,0.7305002402864396,8.786337815457582,19.857012894773483
1682096299432069600,10.477069580078124,2.563815884017944,8.882573499375582,21.519975332844258
1682096299452198400,10.497198486328125,2.333149371691793,9.64538157967925,20.57544173512459
1682096299472326400,10.517326416015624,-0.3043628860473633,11.22884670266509,15.603672728973626
1682096299492455400,10.537455322265625,-3.589952244669199,12.289091084623337,10.43847373908758
1682096299512583400,10.55758349609375,2.584723062968254,11.716699193191527,6.482429589688778
1682096299532711400,10.57771142578125,9.847956992900372,12.637130615311861,3.103953857576847
1682096299552840400,10.59784033203125,3.082125764389336,15.015356123179197,-5.086963657560944
1682096299572968400,10.617968505859375,-7.484727978634834,18.50896980807781,-18.745784175509215
1682096299593097500,10.638097412109374,-8.847199403655528,13.088493742352723,-26.706330508005617
1682096299613225500,10.6582255859375,-2.420706366852671,6.078208153051137,-21.479732169783116
1682096299633354500,10.6783544921875,-0.9868108969569206,1.6270429834276436,-14.339797287261485
1682096299653482500,10.698482421875,-3.8225790972828864,-1.6702531796008349,-10.315099872875212
1682096299673611500,10.718611572265624,-4.343844028067589,-5.5655877164930105,-9.529196748188138
1682096299693739500,10.738739501953125,0.4704395103674382,-11.543982327139377,-7.642229155376553
1682096299713868300,10.758868408203124,2.7582103288710114,-16.33224302411079,-3.521813943466544
1682096299733996300,10.778996337890625,-1.9764137627199292,-17.266464486652612,0.1886860040783882
1682096299754125600,10.79912548828125,-9.364446330970525,-16.649049212145805,1.0807833121180535
1682096299774253600,10.819253662109375,-8.709385508680343,-16.771983517897127,0.12099603116512297
1682096299794381300,10.83938134765625,-2.0170155299603936,-19.029639695578812,-0.418953141823411
1682096299814510600,10.859510498046875,-3.5408676035046573,-17.515566673249005,-0.016617957323789595
1682096299834638600,10.879638671875,-11.300866813737153,-13.553851492476463,-0.5376923339724541
1682096299854767600,10.899767578125,-11.215279949605465,-10.596070192897319,-1.1995944004595278
1682096299874895600,10.9198955078125,-2.1496458848178386,-9.297008871513604,-4.840092591017484
1682096299895024600,10.940024658203125,5.209821390944719,-4.200850100106001,-9.62199602791667
1682096299915152600,10.960152587890626,0.11816223251130431,4.06925668708086,-15.5336341471076
1682096299935281400,10.980281494140625,-7.293361357170343,7.335905198389291,-17.349473609250783
1682096299955409400,11.000409423828126,-7.437820096987485,14.390882162332534,-19.975890618610382
1682096299975538400,11.020538330078125,-3.7544519019961355,17.08834313120842,-18.560973551559446
1682096299995666400,11.04066650390625,-3.427926283979416,16.065801580178736,-11.280482197356223
1682096300015794400,11.06079443359375,-3.4212370154738423,13.676830221891402,-5.214508671978115
1682096300035923500,11.08092333984375,-4.377047209489345,11.11806460700035,0.9532967498898506
1682096300056051500,11.101051513671875,-3.254746476590633,8.899504760432244,6.278096519145369
1682096300076180500,11.121180419921876,-1.8117852183163166,6.911217896828055,12.295057884073257
1682096300096308500,11.14130859375,-0.21035525344237685,4.863642685692012,16.889148592597245
1682096300116437500,11.1614375,1.365727211946249,4.9152165133237835,20.98801598956585
1682096300136565500,11.1815654296875,1.6700237547591328,6.492598517003655,21.904410703516007
1682096300156694500,11.201694580078126,3.365547276955843,6.969857717323303,22.410127352035044
1682096300176822500,11.221822509765625,2.4806056858897207,7.283329792499542,18.33854777496457
1682096300196951300,11.241951416015626,0.9420845971323549,7.01240272758603,12.469665093916653
1682096300217079300,11.262079345703125,-1.27024643804878,6.987526645004749,10.223485419017075
1682096300237208600,11.28220849609375,-0.9336962696239351,8.167398107862471,11.697250980877875
1682096300257336300,11.30233642578125,2.518410515888035,12.460601497495174,10.715277587080001
1682096300277464300,11.32246435546875,2.1194423236034807,19.228111765134333,5.226338810503482
1682096300297593600,11.342593505859375,-6.539846005868911,17.02336767795086,-8.704398367917538
1682096300317721600,11.3627216796875,-10.080760371124743,18.48608694514036,-20.598362007462978
1682096300337850600,11.3828505859375,-8.018167331337928,15.960054556071757,-22.081139727818965
1682096300357978600,11.402978515625,-4.440974030476808,8.444211892727017,-18.943552480709553
1682096300378107600,11.423107666015625,-2.0578572434365747,2.3603952521443365,-17.39437307368517
1682096300398235600,11.443235595703126,-0.9582686930835247,-2.8724545476883647,-14.409808981120586
1682096300418364400,11.463364501953125,-1.3830313979685305,-6.556043691954017,-10.955676242738962
1682096300438492400,11.483492431640625,-1.9789479573726654,-10.831423255604506,-7.042981990244984
1682096300458621400,11.503621337890625,-2.772922744834423,-15.576612872612476,-3.8860692804187535
1682096300478749400,11.52374951171875,-2.1832851195693013,-18.037959731280804,-3.275551364210248
1682096300498878500,11.54387841796875,-1.340166215840727,-17.098165437042713,-2.8544313997417685
1682096300519006500,11.56400634765625,-1.7476573217988014,-16.823175944995878,-0.7779998042166233
1682096300539135500,11.584135498046875,-5.096064078861475,-16.476736835241315,0.3356348071455955
1682096300559263500,11.604263427734375,-9.313160380369425,-15.44877559725046,-1.500859905013442
1682096300579391500,11.6243916015625,-11.271716707098483,-14.319805469590424,-3.765077925428748
1682096300599520500,11.6445205078125,-7.940674926334619,-12.080171270811556,-4.985693486607074
1682096300619648500,11.6646484375,-2.984054389476776,-7.83604726164639,-5.612904763463139
1682096300639777500,11.684777587890625,-1.8952572822511196,-0.9682499888718128,-9.070186321264504
1682096300659905500,11.704905517578124,-3.8693560460269447,8.575440564092993,-16.489306393957136
1682096300680034300,11.725034423828125,1.6240870562314986,11.111994931697845,-20.039725085139274
1682096300700162300,11.745162353515624,5.215667778885364,17.497487411201,-19.711724133872984
1682096300720291300,11.765291259765625,-6.008406887072325,19.256248310816286,-14.496069214469193
1682096300740419300,11.78541943359375,-10.325922880184649,19.446760361278056,-8.371708382052182
1682096300760548400,11.80554833984375,-5.56288313370943,16.062839223241806,-0.7875766108572483
1682096300780676400,11.82567626953125,-2.683916427648067,11.930158403998613,6.2657029015183445
1682096300800805400,11.845805419921875,-2.1142788033604623,9.175272835636138,10.744477962601184
1682096300820933400,11.865933349609374,-2.70233821952343,6.197175893259048,12.717872962021827
1682096300841062400,11.8860625,-2.207143987932056,3.062261372490227,14.177760805177687
1682096300861190400,11.9061904296875,0.1945943513393402,0.6099997375532984,17.49403288683295
1682096300881318400,11.926318359375,2.2775823827706274,1.5851006152331828,20.725294442939756
1682096300901447400,11.946447509765624,1.3558391473993658,2.695761179220676,20.860936254572866
1682096300921575400,11.966575439453125,-4.29018433407247,3.5626813759058713,17.32114417134523
1682096300941704200,11.9867041015625,-7.615451623088121,3.9748675078123807,13.865861093884705
1682096300961832200,12.006832275390625,-5.108187062853575,3.253937206034362,11.982448563206194
1682096300981961200,12.026961181640624,-0.319831673336029,2.6982597180381416,10.751918926256895
1682096301002089200,12.047089111328125,3.0346868446052073,6.821755652567743,8.4876605738312
1682096301022218200,12.06721826171875,-0.9671022801414132,14.382542204010486,2.8652175821721553
1682096301042346200,12.08734619140625,-6.982665760970115,13.961161542779207,-5.868190607130527
1682096301062475500,12.1074755859375,-3.1544603482380507,16.2652404489398,-15.838963832360506
1682096301082603300,12.127603271484375,-1.9977324450805782,13.745962794828413,-22.88576918028593
1682096301102732500,12.147732666015624,-4.260430416321754,7.40528560860753,-18.52471565874219
1682096301122860500,12.167860595703125,-2.2943048233821988,4.229242666375637,-14.375046295297144
1682096301142989300,12.1879892578125,-0.9751530462585389,0.13597849624156952,-10.273262134099006
1682096301163117300,12.208117431640625,-2.1622633743286133,-4.4812154399722814,-7.737921818459034
1682096301183245300,12.228245361328124,-3.5538895821630954,-9.647605100947619,-5.010141699165105
1682096301203374300,12.248374267578125,-3.9372155302882192,-13.136328675717115,-1.9797779784560203
1682096301223502300,12.26850244140625,-2.6133669736504554,-15.235321062618493,0.42627661657929417
1682096301243631400,12.28863134765625,-2.207449254488945,-16.537840415501595,0.25740824264883994
1682096301263759400,12.30875927734375,-1.910188163270801,-17.048457695543764,-1.4821259784489869
1682096301283888400,12.328888427734375,-3.274793239319324,-15.816156957268714,-0.9321154301732778
1682096301304016400,12.349016357421876,-5.138568172591924,-14.37723942142725,-1.0728630405128001
1682096301324145400,12.3691455078125,-5.7887236871838565,-12.767863612115383,-1.4625176071375607
1682096301344273400,12.3892734375,-2.7004069591999054,-11.146481723189353,-3.7220442548662422
1682096301364402200,12.409402099609375,0.1749777967214584,-8.600451671230793,-7.729189061427116
1682096301384530400,12.429530517578126,-2.410383564150333,-1.5669319213360546,-11.296420940244197
1682096301404659200,12.4496591796875,-10.454822816342114,6.4503317391604185,-16.072648669594525
1682096301424787200,12.469787109375,-6.459853016221523,11.347914980638027,-20.541350080430508
1682096301444916200,12.489916259765625,2.3149451680898667,15.678277595841884,-18.449205951988695
1682096301465044200,12.510044189453126,2.423624153995514,14.708477454918622,-14.01895205296874
1682096301485172200,12.530172119140625,-1.635641884946823,14.37572667877674,-10.77671083768606
1682096301505301200,12.55030126953125,-4.1786254088163375,13.643686661702393,-5.975865384429693
1682096301525429200,12.57042919921875,-3.9820483592271803,11.99510229307413,0.576419247251749
1682096301545558300,12.590558349609376,-3.4455157166838646,10.60341529496312,4.455152777954936
1682096301565686300,12.610686279296875,-2.6587644507348536,7.796473376148938,11.739848598110676
1682096301585815600,12.630815673828126,-3.071821520256996,6.021739831376076,15.63285206170678
1682096301605943600,12.650943603515625,-4.2789211817801,4.975306532627344,16.699943533080816
1682096301626072300,12.671072265625,-1.9169338381387293,4.4088159741938115,21.390403196513653
1682096301646200000,12.691199951171875,0.5645147283159196,6.046623512741923,25.135830080533026
1682096301666328800,12.711328857421876,1.1598691237926482,6.56575435410738,24.618013828897475
1682096301686456800,12.731456787109375,-1.5907402285553514,6.1168462190032,17.333396919196844
1682096301706585900,12.7515859375,-4.335583272461593,6.025382571792602,11.979649872398376
1682096301726713900,12.7717138671875,-2.083159880866855,6.4799325121760365,11.975680968767405
1682096301746841900,12.791841796875,2.8579063823759556,8.434266252774,9.916586877012252
1682096301766971000,12.811970947265625,5.489771135747432,13.055873913776873,3.550274314275384
1682096301787099000,12.832098876953125,-2.5006769985377786,14.528885442399977,-5.86232843709886
1682096301807228000,12.852227783203125,-6.507465831267833,17.271832735687493,-19.10224549758434
1682096301827356000,12.87235595703125,-3.0467469924941657,13.040377069437502,-24.306169062662125
1682096301847485000,12.89248486328125,-0.277099762199074,7.020850822457671,-19.017749351298807
1682096301867613000,12.912613037109375,-1.0645989239059388,3.8573335997998712,-13.894092332112788
1682096301887741700,12.93274169921875,-2.7139409790337083,-0.334895386955142,-10.950741708946227
1682096301907869700,12.95286962890625,-3.833746972507238,-5.314927194538712,-9.268219999402762
1682096301927998700,12.972998779296875,-2.857730149026215,-10.894703595381975,-6.705424690604209
1682096301948126700,12.993126708984375,-1.4153786932133137,-16.15090095305443,-3.060651891466975
1682096301968255700,13.013255859375,-1.0701754088640212,-16.576646823757887,-0.47414077603816984
1682096301988383700,13.0333837890625,-2.8948236158847807,-16.303316204833983,-1.3535954601258038
1682096302008512800,13.0535126953125,-4.453073633593321,-17.011436417138576,-2.467947279846668
1682096302028640800,13.073640869140625,-5.299025276529789,-16.884073773550988,-2.2489888871014116
1682096302048769800,13.093769775390625,-7.089585335987806,-15.01120952489376,-1.9412112241744994
1682096302068897800,13.113897705078125,-7.446172914791107,-12.748783648592234,-2.273354682072997
1682096302089025800,13.13402587890625,-5.226497800457477,-11.315804855149985,-3.4490672716856
1682096302109154800,13.15415478515625,-3.062983549284935,-8.727525561004876,-6.320722777950763
1682096302129282800,13.17428271484375,-4.318826491189003,-0.08898059822320938,-11.376705021792649
1682096302149411800,13.194411865234375,-8.05380563095212,9.957148019981384,-18.077309744894503
1682096302169539800,13.214539794921874,-3.6589994774103163,11.739542308640479,-20.013330414688586
1682096302189668900,13.2346689453125,-0.21521275820983574,17.214873415625096,-20.653744287467003
1682096302209796900,13.254796875,-3.3546658174574375,16.72225824074149,-15.134347244262694
1682096302229926000,13.27492578125,-8.000299666213989,16.293171242916582,-10.653540385091304
1682096302250054000,13.295053955078124,-10.244772537195681,15.068385118055343,-4.577186335474252
1682096302270183000,13.315182861328125,-6.022099896860122,12.715792064094543,3.301981690496206
1682096302290311000,13.335310791015624,-0.6871722629524767,9.322119931894541,11.276138030672072
1682096302310440000,13.35543994140625,0.9041642509955913,6.51418549491167,16.406128929054738
1682096302330568000,13.37556787109375,0.09845445594601332,4.7995577515333885,17.743627240860462
1682096302350696700,13.39569677734375,-0.5166061451934277,5.912092877221107,20.589320622873306
1682096302370824700,13.41582470703125,0.6676080230437219,8.64047856119275,23.887548513793945
1682096302390953700,13.43595361328125,1.2418448116898535,9.503914422893523,25.67486915293932
1682096302411081700,13.456081787109374,-0.32876784398555753,8.68162013439834,21.58955681859255
1682096302431210800,13.476210693359375,-2.862845592343807,8.46753840777874,14.466325233590602
1682096302451338800,13.4963388671875,-2.9664065045833587,8.85875657045841,10.363059893923998
1682096302471467800,13.5164677734375,0.6780828014373779,9.029830930000543,7.092929970240593
1682096302491595800,13.536595703125,5.3230117167949675,10.88286936520338,1.85012342453897
1682096302511723800,13.556723876953125,2.769302216249704,15.74492010552883,-2.3746909040004014
1682096302531852800,13.576852783203124,-7.190442249965668,16.80853717879057,-15.635456691247224
1682096302551980800,13.596980712890625,-7.413240951526165,14.273825808703899,-25.15454880952835
1682096302572109800,13.61710986328125,-3.1349978151381013,8.77822991232574,-22.623054647922515
1682096302592237800,13.63723779296875,-3.977842139708996,4.54514985974431,-13.828742784845828
1682096302612366800,13.657366943359374,-5.799838955438137,1.6750988660663366,-9.965950919640063
1682096302632494800,13.677494873046875,-6.548018790930509,-2.6023949132591486,-8.964265109634399
1682096302652623600,13.69762353515625,-4.0227091631785035,-7.582987861856818,-7.798642536881566
1682096302672751600,13.717751708984375,0.04108823558315634,-13.55758308022022,-3.9058588535159826
1682096302692880600,13.737880615234374,0.5469685502313077,-17.172368152850865,-0.18417057248055935
1682096302713008600,13.758008544921875,-2.341994503057003,-16.57721380999088,1.316166769963503
1682096302733138000,13.778137939453124,-5.280504115933179,-15.536416471302509,0.6308131007403135
1682096302753266000,13.798265869140625,-7.446603122901916,-15.980870549607276,-0.25315116972625257
1682096302773395000,13.81839501953125,-7.706874353766441,-15.345107132983207,0.7183639584213495
1682096302793523000,13.83852294921875,-5.672078836965561,-14.459042090845108,-0.5814554878532886
1682096302813651700,13.858651611328124,-3.9476176818370816,-12.774744603800773,-2.255662958037853
1682096302833779700,13.87877978515625,-2.780902637672424,-10.45772087587118,-5.981538753890991
1682096302853907700,13.89890771484375,-0.3768764431921765,-6.849938375478983,-9.9602132527709
1682096302874036700,13.91903662109375,-1.7683704394817352,-0.47114977752864357,-12.073105570209025
1682096302894164700,13.939164794921876,-4.652632913863659,6.227739373826981,-17.96470744806528
1682096302914293800,13.959293701171875,-1.6472224326252936,10.533730933362245,-21.695675598621367
1682096302934421800,13.979421875,1.1488579004347323,13.46540164012909,-21.363877593159675
1682096302954550800,13.99955078125,-1.2258663213133811,14.062678966492413,-12.953952000916004
1682096302974678800,14.0196787109375,-3.5296962211489675,13.42880823174715,-5.463169544547796
1682096302994807800,14.039807861328125,-5.670588306146859,11.62948852725029,0.6814566617846488
1682096303014935800,14.059935791015626,-5.295045851504803,9.895892464029789,7.291993575948476
1682096303035064600,14.080064697265625,-4.141620497024059,8.081727072578667,12.252442731183766
1682096303055192800,14.10019287109375,-2.1518704289995134,6.521998214489221,15.990789886075257
1682096303075321600,14.120321533203125,-0.3428608128763735,7.677526678729057,20.107274772799013
1682096303095449600,14.14044970703125,0.43825931531786916,9.094276806426048,23.28396185815334
1682096303115578600,14.16057861328125,0.42133740661144253,8.706121538448333,21.73409037721157
1682096303135706600,14.18070654296875,-0.2520085755623877,7.558249141919612,16.89083552277088
1682096303155835600,14.200835693359375,-1.4070099471881985,7.483229264509678,11.823313647782802
1682096303175963600,14.220963623046876,-3.2036405587315557,6.887029211989045,10.770226151841879
1682096303196093000,14.241093017578125,-2.6659356575384736,7.828371904712915,10.685050791120528
1682096303216221000,14.261220947265626,0.9512532613635063,11.282012475663423,6.914214740556478
1682096303236349700,14.281349609375,3.629472938674688,14.729437240839003,-1.3630764051765203
1682096303256478000,14.30147802734375,-2.6375708560585975,11.38931198990941,-9.226510855442285
1682096303276606700,14.321606689453125,-5.656604204457998,14.808267031925915,-17.090632118928433
1682096303296734700,14.341734619140626,-5.723928266668319,12.46758653407693,-19.182086511540412
1682096303316862700,14.36186279296875,-4.158577477043867,7.545195599079132,-14.049413826727866
1682096303336991700,14.38199169921875,-3.3939667312324047,3.3299335272610184,-13.572724535250662
1682096303357119700,14.40211962890625,-3.459504494547844,-2.1405372802108524,-11.678324162089824
1682096303377248800,14.422248779296876,-2.736878787028789,-5.87447071031332,-9.826088859963416
1682096303397376800,14.442376708984375,-2.1591512336574494,-10.653623387199639,-5.946803540596366
1682096303417505800,14.462505859375,-3.007014409303665,-15.192434691572188,-2.345780451336503
1682096303437633800,14.4826337890625,-3.1100422375798225,-17.14005812087655,-2.169236720472574
1682096303457762800,14.5027626953125,-2.0958803923606872,-17.322198648834227,-4.090108920973539
1682096303477890800,14.522890869140625,-1.6795017772004008,-17.576714677172898,-3.3147745365738865
1682096303498019600,14.54301953125,-5.166406612110138,-16.516912193763254,-1.396205352318287
1682096303518147600,14.563147705078125,-9.431659334021806,-15.109032770264148,-2.0216057803601024
1682096303538276600,14.583276611328126,-10.086086534583568,-14.302463874167204,-4.246419426625967
1682096303558404600,14.603404541015625,-6.159044023263454,-14.023713568282126,-4.754892680376768
1682096303578533600,14.62353369140625,-2.426005496174097,-10.56639518560171,-3.470406996834278
1682096303598661600,14.64366162109375,-5.0527743877112865,-3.5166987924098967,-6.424462553888559
1682096303618791000,14.663791015625,-9.699759651076793,7.345242351055145,-16.068934617507455
1682096303638919400,14.68391943359375,-4.605941305315494,10.939462774562836,-24.527499445235726
1682096303659048200,14.704048095703126,6.502820051288604,16.381474964791536,-24.635790308606623
1682096303679176400,14.724176513671875,2.1055016226649284,17.334772883725165,-19.17709235651493
1682096303699305200,14.74430517578125,-7.575929760038853,17.25445957608223,-12.138563838547467
1682096303719433200,14.76443310546875,-8.954125992935895,15.346400095403194,-2.3731986196160313
1682096303739561200,14.784561279296875,-4.742600185036659,13.212953650236129,6.1616118279248475
1682096303759690200,14.804690185546875,-1.7662486250221727,11.294994706833362,14.29320154030323
1682096303779818200,14.824818359375,-2.1631121001124383,9.319294937601684,17.412315557610988
1682096303799947300,14.844947265625,-3.122472680085897,6.792846953469515,16.281078654062746
1682096303820075300,14.8650751953125,-2.467618778544664,5.220801050120592,18.570040655112265
1682096303840204300,14.885204345703125,-0.0109492640376091,5.9678819844603535,21.406398053503036
1682096303860332300,14.905332275390625,1.126191310596466,7.249815645432472,21.805243057799338
1682096303880461300,14.92546142578125,-0.978234791791439,7.660817535990476,18.281434141123295
1682096303900589300,14.94558935546875,-4.900742582291365,7.126063009035587,12.657649671727418
1682096303920718300,14.96571826171875,-5.619367821997404,7.2380164865672585,11.858556810599564
1682096303940846300,14.985846435546875,-1.9621032055556773,9.082362496748566,13.315364223396777
1682096303960975400,15.005975341796875,2.693911751961708,13.666974013787508,9.430296228975058
1682096303981103400,15.026103271484375,-0.9958053736649453,16.283077718925476,1.3719044392764568
1682096304001232400,15.046232421875,-6.687089407968521,16.721801144623754,-13.091761219716071
1682096304021360400,15.0663603515625,-6.791454622328281,16.457419555830956,-22.445872034633158
1682096304041489400,15.086489501953125,-3.6652632139801975,11.646205853295326,-23.668930312788486
1682096304061617400,15.106617431640625,-3.2953917907118795,5.733370048752427,-18.95045685327053
1682096304081746400,15.126746337890625,-1.576439169871807,2.582816937085986,-15.275432123732566
1682096304101874400,15.14687451171875,-2.2044391128875316,-3.1088153261333704,-11.26619998950362
1682096304122003200,15.167003173828125,-2.200425639462471,-8.550667941886186,-9.463763029769062
1682096304142131500,15.18713134765625,0.4129787435889244,-14.04379189519286,-7.435898773536086
1682096304162260200,15.20726025390625,1.8689374306023119,-17.731441128504276,-3.6129052502334114
1682096304182388200,15.22738818359375,-0.18946809436678885,-18.93026045293808,-1.8403513875871895
1682096304202517200,15.247517333984375,-2.145302887177467,-17.416019088304044,-3.212000975319743
1682096304222645200,15.267645263671875,-2.4763094500005245,-16.98444085818529,-3.143103964704275
1682096304242774300,15.287774169921875,-3.744983816426992,-17.275862429594994,-2.8867092830121517
1682096304262902300,15.30790234375,-6.389886915069818,-16.461154650706053,-4.45548127925694
1682096304283031300,15.32803125,-9.130001615279912,-13.783580285561085,-4.915155723047256
1682096304303159300,15.3481591796875,-7.543390595483779,-10.123975243473053,-4.822902386763691
1682096304323288300,15.368288330078125,-2.5372949568390846,-5.1834635453730815,-9.004297260293365
1682096304343416300,15.388416259765625,-0.9725462247610092,3.2402304599821568,-16.087725827217103
1682096304363544300,15.40854443359375,-7.755587239009142,8.001112151640653,-20.37711111986637
1682096304383673300,15.42867333984375,-6.290315949249267,18.013671677720545,-24.114703072476384
1682096304403801300,15.44880126953125,-1.12363570782952,18.294861777973175,-17.743851697266102
1682096304423930400,15.468930419921875,-0.5849240407466888,15.304150853216647,-9.46063349957168
1682096304444058400,15.489058349609374,-3.102901718175411,14.446935473465919,-4.122538195413351
1682096304464187400,15.5091875,-5.493886169850826,13.59117438417673,-0.7276940968245268
1682096304484315400,15.5293154296875,-6.220829156047105,11.469691933047772,4.269603902858496
1682096304504444400,15.5494443359375,-3.29678996707201,9.193817377108335,13.284128542655706
1682096304524572400,15.569572509765624,-0.8478607644934206,7.308495213416219,19.595864881074426
1682096304544701400,15.589701416015625,-0.2103812646664679,5.668472336906194,19.963000741899013
1682096304564829400,15.609829345703124,-0.11783727487325668,4.462165871587396,20.701782634449003
1682096304584958200,15.629958251953125,-0.8912123418986797,6.258137434700131,22.587433883965016
1682096304605086200,15.650086181640624,-2.97973827984333,9.891730668175219,22.87073995345831
1682096304625215200,15.67021533203125,-5.760477251386642,9.573816226637362,17.484005998337267
1682096304645343000,15.690343017578124,-5.999048691618442,7.1798413609743115,11.272221734011172
1682096304665472000,15.710471923828125,-3.338199835824966,5.066034851300716,8.941404458528757
1682096304685600000,15.73060009765625,0.5036883575618267,8.574241125175357,8.090982392179965
1682096304705729000,15.75072900390625,2.9680957728445527,16.92511422446966,4.8542970574587585
1682096304725857000,15.77085693359375,-4.36776967805624,15.149968007242679,-7.3718725838273755
1682096304745986000,15.790986083984375,-3.9630794548630712,12.891805633604525,-23.946094226264954
1682096304766114000,15.811114013671874,-3.7227170395612714,10.65302717487216,-22.954929810273647
1682096304786243000,15.8312431640625,-4.019456591123342,9.55495019812584,-14.546993930542468
1682096304806371000,15.85137109375,-4.348270027816295,5.656830414429306,-11.610419085121155
1682096304826500000,15.8715,-4.397463390052319,-0.02840016505420208,-9.734730426692963
1682096304846628000,15.891628173828124,-4.516366832852364,-5.184281291496753,-9.40940424759388
1682096304866757000,15.911757080078125,-2.007462396456301,-9.824127204501629,-7.573139252537488
1682096304886885000,15.931885009765624,0.23221418015956877,-13.884143769550322,-4.075969336462021
1682096304907014100,15.95201416015625,1.6931062319219112,-17.61296906285882,-1.9514017787992952
1682096304927142100,15.97214208984375,0.8313187950152904,-18.733956959593296,-4.004768140557408
1682096304947271200,15.992271240234375,0.9080536596495657,-19.01884123818874,-5.571709414243697
1682096304967399200,16.012399169921874,0.6703530839681625,-19.084293661308287,-4.36532520751357
1682096304987527200,16.032527099609375,-2.0393851826786995,-18.3685559597373,-4.107821103274822
1682096305007656200,16.05265625,-5.977444762575626,-16.00089393146038,-4.858767480871081
1682096305027784200,16.0727841796875,-6.416573846465349,-13.580849389517306,-4.6304824568539855
1682096305047913000,16.092912841796874,-5.1717362827003,-10.582005427187681,-4.8139054258376355
1682096305068041000,16.113041015625,-5.960228254836798,-4.521757293719053,-7.775438186904788
1682096305088170000,16.133169921875,-7.84438312831521,6.575307195350527,-14.028355841130017
1682096305108298000,16.153298095703125,-6.881384484100342,9.783412916797399,-20.467574065601823
1682096305128427000,16.173427001953126,0.31425891470499334,15.866756679171322,-25.801158614337442
1682096305148555000,16.193554931640627,1.7148527843058108,16.88884230312705,-22.32742218081951
1682096305168684000,16.21368408203125,-3.3907834250211715,18.034464290380477,-13.739841681599616
1682096305188812000,16.23381201171875,-7.52457249776721,18.441206185406447,-2.4191133985728026
1682096305208941000,16.253941162109374,-6.895269217067956,15.85997505620718,6.13413403841257
1682096305229069000,16.274069091796875,-4.111155216133595,12.5952051982522,11.869867309165
1682096305249198000,16.294197998046876,-3.324662308859825,8.906967935919761,14.795305843544005
1682096305269326000,16.314326171875,-2.564995449191332,5.08702795496881,16.213759268027545
1682096305289455000,16.334455078125,0.11049933320060372,3.9724113468319175,21.276896059799192
1682096305309583000,16.3545830078125,0.4714262563824653,6.654806264001131,23.80362987513542
1682096305329712000,16.374712158203124,-1.7648621390998362,8.607804956603049,22.389615309882164
1682096305349840100,16.394840087890625,-4.521746772325039,8.285781326180697,18.856636413800715
1682096305369969200,16.41496923828125,-4.345085552561283,7.3876821473777285,13.871915571618079
1682096305390097200,16.43509716796875,-2.719172449946403,6.612967940703034,10.960497379285096
1682096305410226200,16.45522607421875,-0.4075274924457073,6.958963982865214,9.128219408038259
1682096305430354200,16.475354248046877,2.9087352368593216,9.247808495014905,5.982035012975334
1682096305450483200,16.495483154296874,5.953353108370304,14.668978972744942,4.350167385870218
1682096305470611200,16.515611083984375,-2.0352106734730304,14.61685131062269,-2.5045529631882903
1682096305490740000,16.535739990234376,-6.956294471395015,17.339534399038552,-15.038338354837894
1682096305510868000,16.555867919921877,-7.541905909883975,12.476755344438551,-24.012070380997656
1682096305530997000,16.5759970703125,-2.1741795837022364,7.232966217440366,-20.255553947687147
1682096305551125000,16.596125,-0.4522564226187765,4.85412637706697,-17.195764226007462
1682096305571254000,16.61625390625,-1.2251673792637885,0.6901034940987825,-14.539180041921139
1682096305591382000,16.636382080078125,-4.423272077308595,-4.0543887882947915,-13.079654602336882
1682096305611511000,16.656510986328126,-4.152209695577621,-8.478363753175735,-10.510878465563058
1682096305631639000,16.67663916015625,-2.1598586512744427,-13.797379678332804,-6.708343792921304
1682096305651768000,16.69676806640625,-1.7990156069837508,-17.010262697184086,-2.211455567520857
1682096305671896000,16.71689599609375,-4.642921667188406,-17.01749206391573,-1.1298007332652806
1682096305692024000,16.737024169921874,-6.1843666805684565,-16.44642236099839,-2.5704998918265103
1682096305712153000,16.757153076171875,-5.69009613969326,-17.183837641370296,-3.33073256868422
1682096305732281000,16.777281005859376,-4.51197122824192,-16.700398291110993,-2.9419121147960423
1682096305752410000,16.79741015625,-3.920539120775461,-14.055278919368982,-1.8709061003267764
1682096305772538000,16.8175380859375,-4.479413358986378,-11.664274593949317,-2.4894652841717004
1682096305792667100,16.837667236328127,-4.997698397177458,-9.289795871394873,-6.90803809774816
1682096305812795100,16.857795166015624,-2.5238977151274677,-4.196857815599441,-12.613337067270278
1682096305832924200,16.877924072265625,-2.5139000527262687,3.4104572627842424,-14.335581715393065
1682096305853052200,16.89805224609375,-8.374281447410583,8.349385491085052,-19.441122063130138
1682096305873181200,16.91818115234375,-8.589909234428406,16.405164467936753,-25.741600509953496
1682096305893309200,16.93830908203125,-3.379197032123804,16.955041745221614,-22.9024958586812
1682096305913438200,16.958438232421877,-3.3672342071294783,17.384756519556046,-13.764663988167047
1682096305933566200,16.978566162109374,-6.054343293339014,15.866941388088463,-6.033784489434957
1682096305953695000,16.998695068359375,-3.3659856683731078,12.622718643599748,6.53837417975068
1682096305973823000,17.018822998046875,-0.8096843977689743,10.92039450147748,20.82961990981102
1682096305993952000,17.038951904296876,-1.6635504670917987,10.06922190902233,22.8116728474617
1682096306014080000,17.059080078125,-1.557617565023899,7.653522702807187,19.08979284324646
1682096306034209000,17.079208984375,-0.37885903184413905,6.928293534791469,19.240253453826902
1682096306054337000,17.0993369140625,-0.2955576483011246,7.951009273344278,20.29312935284376
1682096306074466000,17.119466064453125,-0.24972894019261002,8.824491897284984,18.725626353621482
1682096306094594000,17.139593994140625,-0.6545055264949798,8.79512668659091,14.381424598157405
1682096306114723000,17.15972314453125,-2.772340561032295,8.573498197853565,10.576049149131775
1682096306134851000,17.17985107421875,-3.4620331362426278,8.224313004261255,11.847234621596336
1682096306154980000,17.19997998046875,-0.10303849580064416,10.27105147231221,15.68675316324234
1682096306175108000,17.220108154296874,4.703032729279995,14.26322959588766,11.038284383320807
1682096306195237000,17.240237060546875,4.175526273757219,17.34030012271404,0.5976257014095783
1682096306215365000,17.260365234375,-5.221730439925193,14.653033215594292,-11.409364597856998
1682096306235494100,17.280494140625,-8.716130891287326,19.46288030595183,-20.176629464054106
1682096306255622100,17.3006220703125,-9.987509255975484,15.446234096074104,-22.01100177723169
1682096306275751200,17.320751220703126,-9.649348145222664,7.798038725769519,-19.60415340147018
1682096306295879200,17.340879150390624,-7.375719322383404,3.8782548072755336,-17.53810466827154
1682096306316008200,17.36100830078125,-4.366336722643673,-1.6845575992852448,-14.289169508308172
1682096306336136200,17.38113623046875,-1.8378677540779114,-7.659919125846028,-11.572760677856206
1682096306356265000,17.401264892578126,1.047304382494837,-11.700163068932294,-6.568185380646586
1682096306376393000,17.42139306640625,1.3632722200095653,-15.256505304944515,-2.5202117200911043
1682096306396522000,17.44152197265625,-0.046080271716788405,-17.441410719192028,-1.9273446113854646
1682096306416650000,17.46164990234375,0.3477050380371511,-18.07518909947872,-3.848816531345248
1682096306436779000,17.481779052734375,1.8774305336594581,-18.3530719748795,-2.035165519157052
1682096306456907000,17.501906982421875,-1.201565408271551,-17.4041252368927,0.07851064213514328
1682096306477036000,17.5220361328125,-7.472004106140136,-16.180706893253326,-1.339430156651139
1682096306497164000,17.5421640625,-10.86203934314251,-16.525664824539422,-6.125588328385353
1682096306517293000,17.56229296875,-5.520834967052936,-16.45551167638302,-8.109636823767422
1682096306537421000,17.582421142578124,-1.6588498881854117,-12.364940983116625,-5.972894844186306
1682096306557550000,17.602550048828125,-5.921112049978971,-5.792829368937015,-6.814562526193261
1682096306577678000,17.622677978515625,-11.660898395514488,2.8412404942572116,-14.814628968173265
1682096306597807000,17.64280712890625,-7.753409310448169,9.967231022578478,-21.463297752332686
1682096306617935000,17.66293505859375,3.496500053989887,17.07836066637635,-23.300576308345793
1682096306638064000,17.683064208984376,3.397576738423109,20.20349642819166,-20.13428669836521
1682096306658192400,17.7031923828125,-4.700702825027704,17.708412135094402,-16.91241373285055
1682096306678321400,17.7233212890625,-9.003491204607487,16.567087552773952,-9.56613677805066
1682096306698449400,17.743449462890624,-7.027305697685479,14.53074539105296,-1.185597439289093
1682096306718578400,17.763578369140625,-4.8457601152598855,11.985076573622226,7.4650973954916
1682096306738706400,17.78370654296875,-6.657913582366705,10.286939946317672,12.36019817250371
1682096306758835500,17.80383544921875,-7.964047618615627,8.955541704952717,15.54139192162752
1682096306778963500,17.82396337890625,-4.137704200363159,6.926806511104107,20.77506063662767
1682096306799092500,17.844092529296876,-0.03610723230019212,6.850141789096593,25.00730540742874
1682096306819220500,17.864220458984374,-0.06943038683980703,6.961506068563461,23.77145545223951
1682096306839349500,17.884349609375,-0.9590532675899565,7.616566890853643,19.521860902708767
1682096306859477500,17.9044775390625,-2.7884441390931602,7.417264215692877,14.622791222065686
1682096306879606500,17.9246064453125,-1.9024317039251326,6.516447010102867,11.530105777478218
1682096306899734500,17.944734619140625,0.6284124693393707,6.041734571656584,11.193257502889633
1682096306919863600,17.964863525390626,0.9145736360028386,8.547648886325955,9.456906588003038
1682096306939991600,17.984991455078124,0.29463410371541976,16.047282757669688,5.2071173926830285
1682096306960120300,18.005120361328125,-4.02897143844366,14.57110662753582,-3.1289445064485073
1682096306980248600,18.02524853515625,-1.5171664583005011,13.773133710348604,-18.305662573450803
1682096307000377300,18.04537744140625,-3.2438521576106547,11.692174992787837,-22.742194237565993
1682096307020505300,18.06550537109375,-4.807312603443861,9.136723032489419,-18.146552207946776
1682096307040634400,18.08563427734375,-6.006852058845758,5.227703084594011,-13.759852203971146
1682096307060762400,18.105762451171874,-5.343452447277307,1.4712158773779869,-11.338390780967472
1682096307080891400,18.125891357421875,-5.537192227613926,-2.541494162094593,-8.743865870431065
1682096307101019400,18.146019287109375,-4.781202010631561,-8.08562115740776,-7.338241532382368
1682096307121148400,18.1661484375,-3.973229092955589,-13.190558278554677,-3.403004024168849
1682096307141276400,18.1862763671875,-2.588852125597,-16.481854908907412,-0.17818857546150682
1682096307161405400,18.206405517578126,-1.4300982695698736,-17.27304737217426,-0.4685048159778118
1682096307181533400,18.226533447265624,0.7672035387836397,-17.445179716336725,-1.332091484326124
1682096307201662500,18.246662353515624,0.5822258877038955,-17.698097661828992,-0.9049719871819019
1682096307221790500,18.26679052734375,-2.81162627723813,-16.339453686141965,-1.081761217239499
1682096307241919500,18.28691943359375,-6.908768165588379,-13.230658818274735,-2.261449140223861
1682096307262047500,18.307047607421875,-8.140366308552027,-10.850571023666857,-5.194796255770325
1682096307282175500,18.327175537109376,-3.921633345752954,-9.927516267305611,-9.17094445104301
1682096307302304500,18.347304443359373,-0.370243252255395,-3.6695325618624683,-9.523329317459464
1682096307322433500,18.36743359375,-5.712530089819431,6.893228066629171,-13.550945249640941
1682096307342561500,18.3875615234375,-5.64826307709217,10.50544825720787,-18.996104505723714
1682096307362690600,18.407690673828125,1.0083506016571073,11.950384030425548,-20.261899517321584
1682096307382818600,18.427818603515625,3.245560130572319,15.62231663916707,-17.19764521744847
1682096307402947300,18.447947265625,-5.272492658913135,19.070746781992913,-11.823360409533977
1682096307423075300,18.468075439453123,-11.452913816726207,17.34751662996411,-4.3819595314502715
1682096307443204400,18.488204345703124,-8.825676138633488,12.94221012519598,1.622227107578516
1682096307463332400,18.508332275390625,-6.129781688421964,8.639349264901876,7.126879001593589
1682096307483461400,18.52846142578125,-3.760472477459907,6.709286042207479,12.725351335078477
1682096307503589400,18.54858935546875,-1.2687328186154365,4.698300732322037,16.702855621135235
1682096307523718400,18.568718505859376,2.0756139955319464,4.001527843461931,20.960396161234378
1682096307543846400,18.588846435546873,3.6411376575052734,4.5571579851850865,23.558815741121766
1682096307563975700,18.6089755859375,1.7093265682302414,5.712712460649013,23.232689936077595
1682096307584103400,18.629103515625,-3.231954799067974,6.042129123932122,19.849505295622347
1682096307604232400,18.649232421875,-3.398717432890832,5.690404767251015,15.668654027450083
1682096307624360400,18.6693603515625,-2.69029005433321,5.926003329151868,11.00264023848772
1682096307644489200,18.6894892578125,-2.754092956680059,5.531143595099449,7.320529934602975
1682096307664617200,18.7096171875,-2.485739541646838,6.253164906984567,4.43084309708476
1682096307684746200,18.729746337890624,0.04291077483519912,12.728829240322112,2.7472143030822274
1682096307704874200,18.749874267578125,-3.232616185586154,17.82455078935623,0.9773422268658876
1682096307725003500,18.77000341796875,-7.504862419646978,18.4144748303473,-16.666315988767145
1682096307745131300,18.79013134765625,-9.717655373251437,12.885427330744266,-29.37156327797174
1682096307765260500,18.810260498046876,-7.015764897495508,7.552911288022995,-21.96300083965063
1682096307785388500,18.830388427734373,-3.705609545154869,3.466770101636648,-14.25955646033287
1682096307805517300,18.850517333984374,-2.41645090136528,0.30383272469341754,-10.710694935464858
1682096307825645600,18.8706455078125,-2.093054813545942,-4.105583553481102,-7.194481296223402
1682096307845774300,18.8907744140625,-0.8850279541753232,-8.785107981401682,-5.25243479026854
1682096307865902300,18.91090234375,-0.9954548066616058,-13.677904573124646,-2.794362423226237
1682096307886031400,18.93103125,-1.1523790602982042,-16.925885793364046,-1.0344961927175522
1682096307906159400,18.951159423828123,-0.7739082971192895,-16.935334005188942,-0.18916005133092403
1682096307926288400,18.971288330078124,-0.4139138324819505,-16.63600385261178,0.3458212701171636
1682096307946416400,18.99141650390625,-1.1494668261133134,-16.313426095438004,1.5018945087581872
1682096307966545400,19.01154541015625,-3.957991776335239,-15.864639540886879,1.2547218289196491
1682096307986673400,19.03167333984375,-6.8680456945776935,-15.08038067627549,-1.2565864537477494
1682096308006802400,19.051802490234376,-7.660006219607591,-13.97663617528677,-4.319911363816261
1682096308026930400,19.071930419921873,-3.989385277986526,-12.290229733264445,-5.967302723267674
1682096308047059200,19.09205908203125,-2.770654799902439,-8.462965108513831,-7.769259790530801
1682096308067187200,19.112187255859375,-7.995777804875373,-0.2615355517119169,-12.210666951727866
1682096308087316200,19.132316162109376,-11.261899077439308,6.909061595577001,-22.605836971139908
1682096308107444200,19.1524443359375,-0.9734124862015247,12.563013239699602,-28.10739440627098
1682096308127573500,19.172573486328126,4.180948298805951,18.340930286186932,-24.273655617070197
1682096308147701200,19.192701171875,-2.9573581057310103,17.990302492570876,-16.272098059749602
1682096308167830500,19.21283056640625,-9.060035514128208,16.384959884297846,-8.169561423376202
1682096308187958500,19.23295849609375,-7.12448947610855,13.457254574030637,-1.6659043367415665
1682096308208087600,19.253087646484374,-3.71874696688652,10.590664534461498,7.212688568565249
1682096308228215600,19.273215576171875,-2.9058780938625333,8.94984612365961,16.3682659391284
1682096308248344300,19.29334423828125,-5.878970944342017,8.496891928035021,17.180550290262698
1682096308268472300,19.313472412109373,-7.44807027284503,7.949227650624513,15.41897199513912
1682096308288601300,19.333601318359374,-0.6225730956614017,7.62009681854546,19.66815153412819
1682096308308729300,19.353729248046875,3.617716742168367,9.964403105676174,24.676152714133263
1682096308328858400,19.3738583984375,0.7546228741519153,11.228833843183518,22.735965572309492
1682096308348986400,19.393986328125,-5.770643840613961,10.976513279062509,16.102418369436265
1682096308369115400,19.414115478515626,-6.895222455316782,9.291120982518791,10.973820971238613
1682096308389243400,19.434243408203123,-3.1373511002659797,8.522018185985088,9.023073272433876
1682096308409372400,19.454372314453124,2.5570751775860785,9.685131990787387,7.706058361208439
1682096308429500400,19.47450048828125,6.9975874357700345,15.59374170206785,6.57401481745243
1682096308449629200,19.494629150390626,-3.369830361102521,17.529418672990797,0.4736024313777685
1682096308469757400,19.51475732421875,-8.807381772530078,19.591621252155303,-16.206411827874184
1682096308489886200,19.53488623046875,-6.506979509055614,14.440213471734523,-28.348544757080077
1682096308510014200,19.55501416015625,-4.480310892347991,6.918884485933185,-24.088647424721717
1682096308530143200,19.575143310546874,-3.287182765293121,3.0638924808233976,-20.28786865583658
1682096308550271200,19.595271240234375,-1.4283296524621545,-1.718877217516303,-15.310900911998749
1682096308570400500,19.615400390625,0.030399814438819884,-6.813374193191528,-9.84780852434039
1682096308590528500,19.635528564453125,1.8108464761614798,-11.77669451994896,-5.291194436773657
1682096308610657500,19.655657470703126,1.3124236379124223,-15.73766501983404,-0.8206821771234274
1682096308630785500,19.67578564453125,-1.7214802396215498,-17.295626283729074,0.9552753564864397
1682096308650914300,19.695914306640624,-3.50932563329339,-16.82022294040918,0.12330489262938499
1682096308671042300,19.716042236328125,-2.4588100336670875,-16.78085889827013,0.2867494879454374
1682096308691171000,19.736171142578126,-2.3137951212719083,-17.2668222140491,1.25766665019989
1682096308711299000,19.756299072265627,-5.527228467482328,-16.099764640057085,0.19373451963961122
1682096308731428000,19.776427978515624,-11.264715303903817,-13.6218150216341,-1.4987199703752994
1682096308751556000,19.79655615234375,-10.51093224157691,-12.459591443669796,-5.17622950246632
1682096308771685000,19.81668505859375,-3.090225776475668,-11.25762271529436,-7.86670660380423
1682096308791813000,19.836813232421875,1.0950433081388473,-4.282069416677952,-9.318182592445611
1682096308811942100,19.856942138671876,-9.377062651437521,6.6927002335876224,-17.61959169586897
1682096308832070100,19.877070068359377,-12.045912442857027,10.156423222613334,-24.49862406388521
1682096308852199400,19.897199462890626,-0.15508995088152586,17.610220640933512,-24.348553913927077
1682096308872327200,19.9173271484375,1.9242717798113822,18.178857563745975,-17.64202564599514
1682096308892456200,19.937456298828124,-3.1877474085509774,16.4389860735178,-11.365452975416183
1682096308912584200,19.957584228515625,-6.452860965377092,15.630606328606605,-6.897095263451337
1682096308932713200,19.977713134765626,-6.936528279173373,13.304073598575592,-1.3185744156271217
1682096308952841200,19.99784130859375,-3.7133681964576244,8.98214797232747,7.947955730992555
1682096308972970200,20.01797021484375,0.9319055868148803,7.492578692135214,18.944032957702873
1682096308993098200,20.03809814453125,0.14910188944786787,8.64553584458232,21.529598901236056
1682096309013227300,20.058227294921874,-2.4851824922859667,8.695835706755519,22.190782005798816
1682096309033355300,20.078355224609375,-1.3225126318588851,8.989989333477617,25.06993108268976
1682096309053484300,20.098484375,-0.5155152812168002,8.944379090425372,23.965462943601608
1682096309073612300,20.1186123046875,-3.375217314837873,8.907234477901458,18.98885760333538
1682096309093741000,20.138740966796874,-6.808242091000079,9.008712154126167,13.80583887912035
1682096309113869300,20.158869384765627,-7.1798080432266,8.257698556512594,10.517994435048102
1682096309133998000,20.178998046875,-4.10167076395154,6.694374888801574,8.211406760936976
1682096309154126000,20.1991259765625,-0.8710895913243293,8.426597910103201,6.108378250387311
1682096309174255000,20.219255126953126,1.288126085871458,15.586539223343133,3.6862563176482914
1682096309194383000,20.239383056640627,-5.27181227543354,16.435436856603623,-6.001136603808403
1682096309214512000,20.25951220703125,-4.590232864052057,12.70858140206337,-28.259274235999584
1682096309234640100,20.27964013671875,-1.980118170195818,5.934863511955737,-30.363281820714473
1682096309254769200,20.29976904296875,-2.40125099414587,5.253689174243807,-18.43069998896122
1682096309274897200,20.319897216796875,-4.992366388499737,3.5781115847498177,-11.801782199454307
1682096309295026200,20.340026123046876,-5.781600703436136,-0.7458464241087436,-11.399440585213899
1682096309315154400,20.360154541015625,-5.637733499771357,-6.132047295266389,-8.315137184524536
1682096309335283200,20.380283203125,-3.3210186916604636,-10.033606990283728,-5.51905568242073
1682096309355411200,20.4004111328125,-1.466195857258886,-13.637580746042728,-1.8521967236816883
1682096309375540200,20.420540283203124,-1.68061266105175,-15.766285549640655,1.513282748734951
1682096309395668200,20.440668212890625,-4.346977065396309,-15.432582002818583,2.5863527099967003
1682096309415797200,20.46079736328125,-6.586421879082918,-15.06126797952652,2.116070947474241
1682096309435925200,20.48092529296875,-6.593465367853641,-14.598169991028309,3.1297990774512288
1682096309456054300,20.50105419921875,-5.010025963830947,-15.613396835130452,1.7327964372754097
1682096309476182300,20.521182373046877,-3.9100025291919707,-14.722271002471446,0.18271862010657786
1682096309496311300,20.541311279296874,-5.698162541770935,-12.774082925021647,-1.690596294927597
1682096309516439300,20.561439208984375,-7.073087790173291,-10.252705668282509,-5.458901365709305
1682096309536568000,20.581568115234376,-5.7720928703784935,-6.370083897969126,-9.046474606287479
1682096309556696000,20.601696044921876,-7.974248694634437,0.2812719333171844,-15.091132371914386
1682096309576825000,20.6218251953125,-11.90991056573987,5.890044127020239,-22.28044766367674
1682096309596954000,20.6419541015625,-7.622543042653799,16.143699643373488,-25.46883453917503
1682096309617082000,20.66208203125,-2.5893863786041735,17.442273473501203,-22.31201885998249
1682096309637211400,20.68221142578125,-2.978735240280628,14.260870465540885,-14.394113399338721
1682096309657339400,20.70233935546875,-5.384380669993162,12.839787861597538,-6.0111465411692855
1682096309677468400,20.722468505859375,-3.811143511033058,11.740816566359996,0.4022112658590078
1682096309697596400,20.742596435546876,-2.39815536621809,10.23360349292755,6.424246280789375
1682096309717725200,20.76272509765625,-1.941663644117117,9.757868725696206,11.246765805715322
1682096309737853200,20.782853271484374,-1.9299872348487377,9.845465760606526,15.162635765635967
1682096309757982200,20.802982177734375,-0.11274126690849662,10.071624293988943,18.80375238035321
1682096309778110200,20.823110107421876,1.7954162673175333,11.6710936263144,22.86023492605686
1682096309798239200,20.8432392578125,0.8693862945377826,13.465788593620061,24.63915481660366
1682096309818367200,20.8633671875,-2.0485693367399276,12.918088075852394,22.7113338198781
1682096309838496300,20.883496337890627,-2.8257588474869726,11.427939534467457,18.286169937473534
1682096309858624300,20.903624267578124,-3.0096774910330772,10.231353083652257,13.8729232873559
1682096309878753300,20.923753173828125,-2.607805832391977,10.007497566515207,11.723210767042636
1682096309898881300,20.94388134765625,-0.413424295399338,11.789142498111724,9.409856083014606
1682096309919010000,20.964010009765627,2.4278806423962114,17.055287249302864,3.611822715693712
1682096309939138000,20.984137939453124,-0.5150574544467031,16.30126570204496,-8.337009993636608
1682096309959267000,21.00426708984375,-2.0681436596512794,15.06343071051836,-27.22770299081802
1682096309979395000,21.02439501953125,-4.4989548025414345,13.248506609654426,-29.69752074071169
1682096309999524400,21.0445244140625,-7.737832971131801,8.493082014358043,-22.02945630233288
1682096310019652000,21.064652099609376,-9.834241771280764,3.9000615654140707,-15.382123735213279
1682096310039781400,21.084781494140625,-10.328859518158435,-0.7085878298163414,-11.123402460896969
1682096310059909400,21.104909423828126,-7.9090055303514,-5.540284932932257,-9.183435099303722
1682096310080038400,21.125038330078127,-4.796054711848497,-10.765509060192107,-7.096171728640794
1682096310100166400,21.14516650390625,-2.3954630583941934,-15.63204892863035,-4.348938720858097
1682096310120295200,21.165295166015625,-1.0506688174266368,-17.47812804621458,-1.137097904536128
1682096310140423400,21.18542333984375,-1.0586134197555481,-17.472914110958577,0.7586316714018583
1682096310160552200,21.20555224609375,-2.1212918969929215,-16.860164490175247,1.1339672052949665
1682096310180680200,21.22568017578125,-3.284967427331209,-17.050157485198973,-0.452066306874156
1682096310200809200,21.245809326171877,-4.2242789064884185,-16.61625519604683,-0.8278589368849992
1682096310220937200,21.265937255859374,-5.561688370966911,-14.49294319140315,-1.3190122225224972
1682096310241066200,21.286066162109375,-6.772445970475673,-13.257597094082831,-4.146021946853399
1682096310261194200,21.3061943359375,-3.3483424596548077,-11.429598407590388,-5.942082357293367
1682096310281323300,21.3263232421875,-2.50597159781456,-6.147402685308456,-7.927511493378877
1682096310301451300,21.346451171875,-5.98355418536663,3.67754927957952,-11.913147647964953
1682096310321580300,21.366580322265627,-9.63193348456323,10.547778163415193,-22.178509384202957
1682096310341708300,21.386708251953124,-7.087539509373903,14.554188225960731,-25.993061826896668
1682096310361837000,21.406837158203125,-3.747988843461871,16.891107909971474,-20.835446424007415
1682096310381965000,21.426965087890625,-4.256157561308146,18.148509187233447,-11.484933925843238
1682096310402094300,21.44709423828125,-5.665809255176782,17.245463784199952,-5.200958870053291
1682096310422222000,21.46722216796875,-5.692177622142434,13.648631716889142,-0.7639782931268215
1682096310442351400,21.487351318359377,-3.397402550899982,10.577128176540135,4.4768297722339625
1682096310462480400,21.50748046875,0.01996723121907562,8.216519573906064,11.933794130152464
1682096310482608400,21.5276083984375,1.5500632041215896,7.588256157648563,18.456634056162834
1682096310502737400,21.5477373046875,1.2613421238422393,7.317775667458772,19.575279189163446
1682096310522865400,21.567865478515625,0.7122540972389281,6.658544281485677,19.135876549029348
1682096310542994200,21.587994140625,1.4585972188234329,6.444010719445347,21.298340998888015
1682096310563122200,21.6081220703125,1.0361398682713507,7.640039536377787,22.036433155608176
1682096310583251200,21.628251220703124,-0.3603201894603669,9.279127762386203,19.403778128641843
1682096310603379200,21.648379150390625,-2.8526223044931887,8.598511058557033,15.180018277591467
1682096310623508200,21.66850830078125,-3.6371523872613905,7.090637475389242,10.464066445505619
1682096310643636200,21.68863623046875,-1.8786603677153586,7.714386044570803,6.705689479020237
1682096310663765200,21.70876513671875,1.2269254749774932,14.407384384322166,5.070822085577249
1682096310683893200,21.728893310546876,-0.6679331633448601,17.9254299151659,1.0764508358716964
1682096310704022300,21.749022216796874,-3.8885926614165305,14.71008372107148,-21.201920606052873
1682096310724150300,21.769150390625,-5.666829830396175,11.53769287160635,-28.259271897912022
1682096310744279000,21.789279052734376,-5.919801551902294,10.330256525474786,-20.84006180884838
1682096310764407000,21.809406982421876,-7.559474299800396,5.335919129163027,-14.179768053346871
1682096310784536000,21.8295361328125,-6.562744066375494,0.20555472129285335,-11.628338188171385
1682096310804664000,21.8496640625,-4.535191068048775,-4.630263261145353,-9.815424842607975
1682096310824793000,21.86979296875,-2.4629741676092145,-9.48165232220292,-7.932722506025433
1682096310844921000,21.889921142578125,-0.7290648006558418,-13.693720566415786,-4.992514857059717
1682096310865050400,21.91005029296875,-1.119001691353321,-16.23801108123064,-2.282538105481863
1682096310885178000,21.93017822265625,-1.6438472571037708,-16.330674167358875,-1.0820762745380401
1682096310905307400,21.950307373046876,-1.0491491335786878,-16.143631838834285,-0.3702496089309454
1682096310925435400,21.970435302734376,0.3631179304201156,-17.01750843052864,1.175527880695462
1682096310945564200,21.990564208984374,-0.8251906675238162,-16.121513530528546,2.793845705875754
1682096310965692200,22.010692138671875,-6.015995150244236,-14.322396070605516,1.578904683202505
1682096310985821200,22.0308212890625,-10.074625229370593,-13.356209444004296,-2.126569545134902
1682096311005949200,22.05094921875,-5.741797100836038,-11.927063945114613,-5.66465657801032
1682096311026078200,22.071078125,-1.3687152878463267,-6.819945972797274,-8.265344687351584
1682096311046206200,22.091206298828126,-6.625944911175966,1.9421470437198876,-13.06946054058075
1682096311066335200,22.111335205078124,-10.196810178059339,8.105069369721413,-22.717363747692108
1682096311086463200,22.131463134765625,-0.9771405668139457,15.490314060819149,-27.534102351129054
1682096311106592300,22.15159228515625,5.398012889504432,18.26538433907628,-23.104838632190226
1682096311126720300,22.17172021484375,1.8794880507111549,15.393913541728256,-14.014758692932128
1682096311146849300,22.191849365234376,-4.939924253600836,13.78080848276019,-6.372398020130396
1682096311166977300,22.211977294921876,-8.716310924029349,11.582885766029356,-0.025559388670325277
1682096311187106000,22.23210595703125,-4.576217198181152,8.58632143906951,7.90794228503406
1682096311207234000,22.252234130859375,-0.7488928791325539,7.844596478804945,15.75405968979597
1682096311227363000,22.272363037109375,-2.1758172679066656,7.362295192664861,21.117796215689182
1682096311247491000,22.292490966796876,-3.0584967592597008,6.976960827326774,21.32377003917694
1682096311267620000,22.3126201171875,-3.285891848699748,7.315081021547317,21.837249138391016
1682096311287749400,22.332749267578127,-1.8442226760625837,7.977939365845918,22.011937012255192
1682096311307877400,22.35287744140625,-1.2381295905590057,8.059746126917004,20.89716959747076
1682096311328005400,22.37300537109375,-3.1430700624346732,7.7794743105530735,15.857131941735744
1682096311348134400,22.393134521484374,-5.223764576101303,7.733551932811737,10.126054972356558
1682096311368263200,22.41326318359375,-5.452578007906675,7.81970929030776,6.704706897723675
1682096311388391200,22.43339111328125,1.5469836505457757,9.006281127586961,7.620853189870715
1682096311408520200,22.453520263671876,10.372930130553245,15.027054744279384,8.511954472610354
1682096311428648200,22.473648193359374,0.7181165595315396,17.29876867340803,-1.4981068069130181
1682096311448777200,22.493777099609375,-9.57315220977068,20.80900732989311,-25.580821918976305
1682096311468905200,22.5139052734375,-12.129620653635262,15.339986721229552,-29.285940173482892
1682096311489034200,22.5340341796875,-3.986666082155704,7.012977897125483,-20.538015967571734
1682096311509162200,22.554162353515625,0.5937386308431625,1.8439315841615198,-16.537499054718015
1682096311529291300,22.574291259765626,0.8115595439910889,-2.304742923027277,-11.243547428190707
1682096311549419300,22.594419189453124,-2.2583726553879675,-6.504648435759544,-6.422742305967211
1682096311569548000,22.614548095703125,-4.067002770674228,-10.262676442676781,-4.768395136028528
1682096311589676000,22.634676025390625,-5.199008905029297,-14.325263734996318,-2.451391866365075
1682096311609805000,22.65480517578125,-4.057296492435038,-15.515506954264639,-0.5649123493313789
1682096311629933000,22.67493310546875,-1.0378934339404104,-15.454340245640276,0.46725218556821346
1682096311650062000,22.69506201171875,0.8305470799904316,-16.541630455434323,1.7985259237706661
1682096311670190000,22.715190185546874,-1.1012463274974376,-16.927080556106567,1.643420702254772
1682096311690319000,22.735319091796875,-6.344250953054428,-15.340596962082385,-0.2207797629535198
1682096311710447000,22.755447021484375,-9.944953724318742,-14.515027597439289,-2.594046771630645
1682096311730576100,22.775576171875,-5.791286231148242,-13.501023573130368,-4.586096787160635
1682096311750704000,22.7957041015625,0.2532078866158612,-11.992422844731808,-5.066539293691515
1682096311770833000,22.8158330078125,-1.1603402484357357,-6.317836408859491,-7.794425795969366
1682096311790961200,22.835961181640624,-8.465331253123283,2.138276349541545,-15.36789179624319
1682096311811090000,22.85608984375,-8.699681276267766,8.066839884570241,-24.3014040402174
1682096311831218000,22.876218017578125,-1.6613257767796517,13.13243926706314,-25.51250300050974
1682096311851347000,22.896346923828126,-1.9759622195601463,18.177550572800634,-22.78983043348789
1682096311871475000,22.916474853515624,-7.594549120312928,18.983346730959415,-13.004193995422124
1682096311891604200,22.936604248046876,-8.939339927214384,15.912570335841178,-6.60059302777648
1682096311911732200,22.956732177734374,-6.550935555160045,12.862904533290862,-1.2785200531363488
1682096311931861200,22.976861328125,-3.9952842728972433,9.896002354145049,6.7485612370193
1682096311951989200,22.9969892578125,-1.7583341986358165,7.718701569682359,16.2829175599277
1682096311972118000,23.017117919921876,-0.8025649211525917,7.037282317298651,20.31508165693283
1682096311992246300,23.037246337890625,-1.74295528158769,7.132450664246082,20.612201147723198
1682096312012375000,23.057375,-2.6564170108258724,7.394466108429431,22.65602168250084
1682096312032503000,23.0775029296875,-1.382335670789331,7.837703212159871,25.750471214151382
1682096312052632000,23.097632080078125,-0.9422210829935967,8.40485194224119,25.49584880282879
1682096312072761000,23.117760986328125,-2.58763982719779,8.361907119005918,18.928294121301175
1682096312092889000,23.13788916015625,-4.682607196366787,7.055686573517322,11.273825662076472
1682096312113018000,23.15801806640625,-2.663179929089546,5.979182546153664,9.056820643734932
1682096312133146000,23.17814599609375,3.6776936564862726,9.223712749156356,9.79555402096808
1682096312153275100,23.198275146484374,4.7574072935461995,17.216306663298607,6.269508139020204
1682096312173403100,23.218403076171874,-6.142817695605754,16.54923859235048,-10.214830987918376
1682096312193532000,23.238531982421875,-12.516103019964694,17.205287256634236,-28.371560891008375
1682096312213660000,23.258659912109376,-11.420210986042022,13.309807758313417,-28.222533528101444
1682096312233789000,23.278788818359374,-6.884509338122606,6.313120486253499,-19.78557029132843
1682096312253917000,23.2989169921875,-3.026647330534458,2.442493689638376,-14.875855298030375
1682096312274046200,23.319046142578124,-0.5286673525283113,-1.682849041801691,-9.452138058426975
1682096312294174200,23.33917431640625,0.7605541638970374,-6.493572330471873,-6.036557461279631
1682096312314303200,23.35930322265625,1.7766706503152847,-11.557922005164622,-5.162023282459378
1682096312334431200,23.37943115234375,1.3471078516721724,-15.538601414126157,-3.5261423280596733
1682096312354560300,23.399560302734375,-0.4956137356450781,-17.340625116884706,-1.2325795552164316
1682096312374688300,23.419688232421876,-1.6087492018461227,-17.117742244172096,-0.07944353907108306
1682096312394817000,23.439817138671874,-3.513338960587978,-15.972233654165267,1.0690957969337702
1682096312414945000,23.459945068359374,-5.949055703437328,-15.86159768897295,1.4673095175892115
1682096312435074000,23.480073974609375,-7.19532417678833,-15.525663606619833,0.056118777585029596
1682096312455202000,23.5002021484375,-8.80094443295896,-14.520063838040828,-1.1211199986815452
1682096312475331000,23.5203310546875,-7.62091865632236,-12.419253588062524,-2.112186214995384
1682096312495459000,23.540458984375,-6.229969909358024,-8.942936490401625,-2.603013337418437
1682096312515588000,23.560588134765624,-6.410919181704521,-3.2395027302294968,-6.735204911839961
1682096312535716000,23.580716064453124,-10.790506723326445,5.389360211971402,-14.084835853242874
1682096312555845000,23.60084521484375,-14.350856441414356,11.723084510314465,-19.1979960283339
1682096312575973000,23.62097314453125,-6.541150658726692,18.624424571728706,-17.250500024801493
1682096312596102000,23.641101806640624,-3.5001354878827926,19.116259994411468,-15.494704989254474
1682096312616230000,23.66122998046875,-4.1122213840603825,15.495605152964592,-9.754041860884428
1682096312636359000,23.68135888671875,-3.945552566000819,13.027088548797368,-2.9181834486842155
1682096312656487000,23.70148681640625,-2.2477719125270843,9.904026670646667,2.5005647703349587
1682096312676616200,23.7216162109375,-0.34179102822039276,8.013664174699782,8.136176455646753
1682096312696744000,23.741743896484376,-0.8366050648551434,5.936628768062591,11.755191128671168
1682096312716873200,23.761873291015625,-1.6967280756808816,3.9613855104267595,13.871997404682636
1682096312737001200,23.782001220703126,-3.376298972594738,4.450392139424383,15.574637188625335
1682096312757130200,23.802130126953124,-1.143469923786074,6.904174408057331,21.01856310352087
1682096312777259000,23.822259033203125,1.5102759681344031,8.289702299016714,23.609430660593507
1682096312797387000,23.842386962890625,0.30020898123830553,8.391914719256759,21.622446696281433
1682096312817516000,23.86251611328125,-2.093291106519848,8.455930972093343,15.98241134930849
1682096312837644000,23.88264404296875,-4.986436998450756,8.480597795838117,12.067865915989875
1682096312857773000,23.90277294921875,-3.493070079541206,8.305034308183192,12.063636315596103
1682096312877901000,23.922901123046874,1.5677578507661818,10.547377181398868,6.97346187929511
1682096312898030000,23.943030029296875,4.56626162135601,16.555609880948065,3.0465549770534035
1682096312918158000,23.963157958984375,-4.659633148014545,18.1478884249866,-8.366655774837731
1682096312938287000,23.983287109375,-10.129316604501009,18.516735765904187,-26.870408140528202
1682096312958415000,24.0034150390625,-6.560180353367328,9.912628494775294,-31.417270649409293
1682096312978543900,24.0235439453125,-5.0304690324008465,4.489306391969323,-18.761487940597533
1682096312998672100,24.043672119140624,-5.344959344708919,1.7555781779259443,-11.652640270256995
1682096313018801000,24.06380078125,-5.694225202322006,-2.764419704905152,-8.059503550332785
1682096313038929000,24.083928955078125,-5.2321770151376725,-6.760166919139027,-6.285959507605433
1682096313059058200,24.10405810546875,-2.9567221459150312,-11.715030967718363,-3.3631542443394657
1682096313079186000,24.12418603515625,-1.9311505795396864,-16.624986784034967,-1.7634177855104207
1682096313099315200,24.144315185546876,-1.020855789899826,-17.233071920138595,-0.721596948993206
1682096313119443200,24.164443115234373,-0.20708573025241492,-15.884277138292788,1.499828223878145
1682096313139572200,24.184572265625,-2.5203286244690415,-15.140891551339626,2.6831898669391867
1682096313159700200,24.2047001953125,-5.713598595833778,-15.125579415917395,2.4021605102062225
1682096313179829200,24.224829345703125,-6.877384016287326,-14.939339051425456,0.7260995211094617
1682096313199957200,24.244957275390625,-5.270159247529507,-14.271314702665805,-1.6732663899421691
1682096313220086000,24.2650859375,-1.7293559414327144,-14.033894770556687,-4.679192419487237
1682096313240214000,24.285214111328123,-0.651097763878107,-9.929135392940044,-6.350666665315628
1682096313260343000,24.305343017578124,-7.615213138157129,-1.6805097851991653,-11.98851706946492
1682096313280471000,24.325470947265625,-12.742381964856385,5.164746569943428,-22.23844392068386
1682096313300600000,24.34560009765625,-3.691527536049485,7.963009507739543,-27.311752562379837
1682096313320728000,24.36572802734375,0.2808598453849554,15.280602804368733,-24.62876903166771
1682096313340857000,24.385857177734376,-5.097811799311637,19.17511316539645,-16.38497274377942
1682096313360985000,24.405985107421873,-9.032759384667873,18.098779233902693,-8.002578132539988
1682096313381114000,24.426114013671874,-6.129364339792728,14.423570964491367,-2.4690491036087274
1682096313401242000,24.4462421875,-3.281625131165981,9.870289236217737,4.942319624304771
1682096313421371000,24.466370849609376,-1.0217605567198247,9.23032486077249,13.44611709394455
1682096313441500200,24.486500244140625,-0.11826163776516914,9.453678858128189,17.351577888053654
1682096313461628200,24.506628173828126,-1.558367944999784,8.722999023491143,15.966580158448219
1682096313481757200,24.526757080078124,-1.2893185105264187,8.273834867799282,18.50744537498951
1682096313501885200,24.54688525390625,2.6454221540808676,8.380250000426173,21.083844846248624
1682096313522014200,24.56701416015625,3.1821745768547056,8.019228823089598,20.27602858043909
1682096313542142200,24.58714208984375,-0.9955297715939581,8.20210818671584,16.884108844864368
1682096313562271200,24.607271240234375,-4.315908557915687,8.492458329501748,13.115174828529357
1682096313582399200,24.627399169921876,-3.6752991625651714,7.711601966810226,11.457350337868927
1682096313602528000,24.647528076171874,-1.0284310474596916,7.633775215286016,10.318087948775291
1682096313622656000,24.667656005859374,0.8402687749944627,10.183751959043741,7.649439232885837
1682096313642785000,24.687784912109375,1.2168972713075576,16.251686555361747,2.530522101703286
1682096313662912800,24.707912841796876,-4.520224677324295,13.7868325653553,-7.054707499352097
1682096313683041800,24.728041748046873,-4.243231444239616,14.315743042457102,-26.040076091527936
1682096313703169800,24.748169677734374,-5.356215482738614,10.24994438687563,-30.936597256731986
1682096313723298800,24.768298828125,-6.060575465726852,5.501219581478834,-20.05901430749893
1682096313743426800,24.7884267578125,-4.8902293715834615,2.6347154666274784,-12.604016281217335
1682096313763555800,24.808555908203125,-3.7284105750277634,-1.3427882349073885,-8.937554212841391
1682096313783683800,24.828683837890626,-3.328694340854883,-5.757395067462324,-7.006027347335219
1682096313803812900,24.848812744140623,-2.4270750251017508,-11.00112983392477,-4.778615501269698
1682096313823940900,24.86894091796875,-1.6641536936819552,-16.172445260864496,-2.122827435997128
1682096313844069600,24.889069580078125,-1.7208979096889494,-18.221880712914466,0.1896364366710186
1682096313864197600,24.90919775390625,-1.6807158291652797,-17.101120779716968,0.4061147030383348
1682096313884327000,24.929326904296875,0.8573837220549583,-16.87431108894944,0.4863105217814445
1682096313904455000,24.949454833984376,2.3839164129853248,-17.915479014515874,1.4516080905884503
1682096313924584000,24.969583984375,-3.2472470607459543,-15.556610533547401,1.759867984074354
1682096313944712000,24.9897119140625,-10.88197504671216,-11.727218249118327,1.4646446822941301
1682096313964841000,25.009841064453123,-10.10861050108075,-9.200699537837504,-0.23581308143436908
1682096313984969000,25.029968994140624,-4.272845661258697,-9.159898740893603,-5.511226011708379
1682096314005098000,25.050097900390625,-1.3233178107619286,-5.835767177909612,-10.93906062350273
1682096314025226000,25.07022607421875,-6.684609866112471,5.943972701084613,-14.172133028423785
1682096314045354800,25.090354736328123,-12.648873660075663,11.139240666019916,-19.243946463125944
1682096314065482800,25.110482666015624,-5.322848050665855,15.926643284857272,-24.368142411494254
1682096314085611800,25.13061181640625,-0.16103340598847715,16.36488740260601,-19.21586369345784
1682096314105740800,25.15074072265625,-2.72037305790782,14.66455881821513,-9.66981225658059
1682096314125868800,25.170868896484375,-6.221295604515075,12.648141838669776,-6.0540393419563765
1682096314145997800,25.190997802734376,-7.29303051778078,11.109829862618446,-0.5721311946690082
1682096314166125800,25.211125732421873,-5.101874226444959,9.506948676022887,6.837007582235336
1682096314186254800,25.2312548828125,-3.0433845303237437,7.568935371106862,13.798746290510891
1682096314206382800,25.2513828125,-2.4878742155879734,6.109979840365052,16.573409741532803
1682096314226511600,25.27151171875,-2.557937931895256,5.987425473842024,16.78782873728275
1682096314246639600,25.2916396484375,-1.9202488079056144,6.079616850805282,20.04677909530401
1682096314266769000,25.311768798828126,-1.056920644363016,7.436697814959287,22.877742525696753
1682096314286897000,25.33189697265625,-0.5881761744104326,8.25444160054326,22.469919265174866
1682096314307026000,25.35202587890625,-1.6100854188859461,7.610930346271395,16.91264286543131
1682096314327154000,25.37215380859375,-3.2424034201070664,6.41386809463799,8.766862715137004
1682096314347283000,25.392282958984374,-1.8273098274454473,5.070920285254717,7.67824797874093
1682096314367411000,25.412410888671875,3.027040129244327,9.575907645958662,11.27485792773366
1682096314387540000,25.4325400390625,4.41150360584259,17.1213861536324,8.360120820111035
1682096314407668000,25.45266796875,-5.418321518039703,17.394316959583758,-3.5056174264252182
1682096314427796700,25.472796630859374,-10.418275000667572,17.609023540103433,-21.96436394469738
