time,seconds_elapsed,z,y,x
1682096481587595000,0.026594970703125,-6.364298300305008,1.12170320539698,4.745130872558057
1682096481607723000,0.046722900390625,-6.732343677189946,0.5752386591650546,2.652380302655697
1682096481627852000,0.06685205078125,-7.120307221987843,1.4561132930532097,0.38776758383437987
1682096481647980000,0.08697998046875,-2.009642370843887,2.7166040607631206,-3.0974346849411725
1682096481668108000,0.10710791015625,6.261201498445868,0.27565789282768965,-6.567791997414827
1682096481688237000,0.127237060546875,6.060967679914832,-0.4325942752934992,-5.560314744526147
1682096481708365000,0.147364990234375,0.7300713473498821,1.9671900073006747,0.43764629798606036
1682096481728493800,0.167493896484375,-0.14355097732245922,2.375165243513882,4.072507797831297
1682096481748621800,0.187621826171875,3.519420910850167,2.332186664139479,-0.5361806873004883
1682096481768750000,0.20775,2.5117501812160015,-0.6288005188088863,-4.708071307969093
1682096481788878800,0.22787890625,2.3556261380463837,2.1471647355265913,-2.9107924616500735
1682096481809006800,0.2480068359375,5.0095162607431405,4.542154769581556,2.4957559087485075
1682096481829136000,0.268135986328125,9.077164343583583,5.42951745031476,5.6284758420825005
1682096481849263900,0.288263916015625,10.498347485291957,3.6672552645802496,1.3035042722672223
1682096481869393000,0.308392822265625,11.130096405577659,5.424380671948194,-3.477494032485783
1682096481889521000,0.32852099609375,7.3925295874089,10.625519574743508,-5.677931654646993
1682096481909649000,0.34864892578125,5.847623035398125,8.517942314848304,-4.4967719055444
1682096481929778000,0.36877783203125,0.016650106027722357,2.999612316353619,-12.760140908908843
1682096481949906000,0.388906005859375,-6.746651604005694,8.135795931896567,-27.69138783929348
1682096481970035200,0.40903515625,-12.084597270560264,11.764463983929156,-19.52500913760662
1682096481990163000,0.429162841796875,-10.55733275822401,8.44627700856328,-2.802479678708315
1682096482010291000,0.449291015625,-7.909000854176282,-0.25185499243587256,-0.3525947097748518
1682096482030420000,0.469419921875,-4.7687242218524215,-3.020278380024433,-0.6636252370178699
1682096482050548000,0.4895478515625,-6.570977057191729,-3.3223300665199753,5.298198762577772
1682096482070677000,0.509677001953125,-13.824481620270014,-5.422510201901197,6.033634267309307
1682096482090805000,0.529804931640625,-13.593532345479726,-9.472295880314707,4.403045574098825
1682096482110933000,0.54993310546875,-6.466517734807729,-10.12135074018836,2.3759032023996114
1682096482131062000,0.57006201171875,-1.753512477567792,-11.544287447565793,5.669193052396178
1682096482151190000,0.59018994140625,-1.2620558250695466,-11.763809319412708,12.523437600636482
1682096482171319000,0.610319091796875,-3.825625625371933,-12.197982826721667,13.8327514359653
1682096482191447000,0.630447021484375,-6.121178695249557,-18.844331058979034,18.254670052838325
1682096482211576000,0.650576171875,-2.0355039573311804,-8.589385502815245,4.157953207665682
1682096482231704000,0.6707041015625,-3.3491093523740765,-7.696843958139419,-4.708997190642356
1682096482251832000,0.69083203125,-4.8266573553830385,-5.296237107115983,-7.287009942317009
1682096482271961000,0.710961181640625,-8.37622673625946,-1.971893070425093,-5.660342221942543
1682096482292089000,0.731089111328125,-7.654182043498754,2.419343407936394,-8.603020644935965
1682096482312217900,0.7512177734375,-9.812688111120462,4.840502340862154,-13.478001593983173
1682096482332345900,0.771345947265625,-11.204819345867634,9.750486214229465,-16.108462325775623
1682096482352473900,0.791473876953125,-8.170091584730148,11.664819368350505,-12.192897486281394
1682096482372603000,0.811602783203125,-6.833247937440872,11.331637215054034,-7.675671990773082
1682096482392731000,0.83173095703125,-3.8977807610005137,8.193921373128891,-8.709028950327633
1682096482412860000,0.85185986328125,-0.022804537004232406,5.484863489961624,-7.07202863650918
1682096482432988000,0.87198779296875,5.096127791747451,6.581405512225627,2.8084815494716167
1682096482453116000,0.892115966796875,5.690789967176318,7.268775197446346,11.976832476890086
1682096482473245000,0.912244873046875,4.344911365038156,7.465068753919005,16.399792711770534
1682096482493373000,0.932373046875,5.2643718962997195,9.900328985172509,16.248373485291005
1682096482513502000,0.952501953125,6.509376048803329,11.106088922524451,17.458512660640476
1682096482533630000,0.9726298828125,6.459177308917045,9.670738139253855,16.904341485553978
1682096482553758000,0.992758056640625,5.475145229023695,7.969621034833788,12.351118209469318
1682096482573887000,1.012886962890625,4.359754713904858,7.5934192395001645,6.779722098958492
1682096482594015000,1.033014892578125,3.775692258423567,7.990400203490257,4.781432312256097
1682096482614143700,1.053143798828125,3.7770471801638603,8.607070797109603,5.249927191361785
1682096482634271700,1.073271728515625,5.568228001868724,14.623065947353838,1.1175777960300446
1682096482654399700,1.093399658203125,1.3800807314693926,14.697798239994048,-5.490369686162471
1682096482674529000,1.113529052734375,-8.293546114963293,13.531671224850415,-17.05245582526922
1682096482694656800,1.13365673828125,-10.524970119279622,9.543223519974946,-27.091570180797575
1682096482714786000,1.1537861328125,-8.292657641690969,5.237265862709283,-22.946970960223673
1682096482734914000,1.1739140625,-9.584535189050435,0.6167252464160323,-10.867475396716594
1682096482755043000,1.19404296875,-10.311505063253641,-3.354858709681034,-6.131126673290133
1682096482775171000,1.214171142578125,-9.575552256649733,-7.223245618414879,-7.095134202286601
1682096482795299000,1.234299072265625,-9.337443757754563,-11.697052243435381,-6.10929361166656
1682096482815428000,1.254427978515625,-7.264903324449062,-14.874216298651694,-3.3115392079144716
1682096482835556600,1.274556640625,-4.801164602208138,-16.373608469200132,0.4893810152679681
1682096482855685400,1.294685302734375,0.6236041922748089,-15.598625966978073,6.876358180370927
1682096482875813400,1.3148134765625,-0.8383902677714824,-14.329999531346559,7.017683882859349
1682096482895941400,1.33494140625,-1.3727970042020081,-14.770942971181869,6.914237536910176
1682096482916070700,1.355070556640625,-3.819437292125821,-14.368479776388407,6.1129059569448225
1682096482936198400,1.375198486328125,-5.126928003680706,-13.046504027885199,5.14956127577126
1682096482956326400,1.395326416015625,-7.255346391552687,-10.67007183317542,3.239596253731847
1682096482976455700,1.41545556640625,-8.75523423666358,-8.62669670407772,-2.4589783759713173
1682096482996583700,1.435583740234375,-5.584444977176189,-2.4917913890317083,-5.556242965042591
1682096483016712700,1.455712646484375,-5.610074508473277,3.5265485707730053,-10.944648652768134
1682096483036840700,1.4758408203125,-9.031157794690131,6.386577936652302,-21.177099468529224
1682096483056969700,1.4959697265625,-9.925608387857675,12.97680563775897,-27.695460787820814
1682096483077097700,1.51609765625,-8.892157904800772,17.058744111758468,-23.422446784257886
1682096483097225700,1.536225830078125,-3.520387125533819,16.232587887138127,-6.807344849899411
1682096483117354800,1.556354736328125,0.17634966959655285,14.078000454264878,1.5162977126419543
1682096483137482800,1.576482666015625,-0.9973802217662334,11.10245553445816,4.4890380964219565
1682096483157611500,1.596611572265625,-0.6231856746017933,8.726161286914348,5.879291262337565
1682096483177739500,1.616739501953125,0.812534526503086,6.857792596110701,9.560992985421418
1682096483197867500,1.636867431640625,2.047961287844181,6.4829632581740615,12.61972939865589
1682096483217996500,1.65699658203125,3.3235856195390223,6.7673688133418555,13.825558309590816
1682096483238124500,1.67712451171875,5.232094013029337,8.136725321701169,15.141866533851623
1682096483258253600,1.697253662109375,7.049207732892036,9.02433525519371,17.00014929944873
1682096483278381600,1.717381591796875,7.309763041394948,9.932185428160428,18.14615940923691
1682096483298509600,1.737509521484375,4.014031058943272,9.287118761140107,14.792186834740638
1682096483318638600,1.757638671875,0.6692962683916092,7.681658079445362,9.02513838827014
1682096483338766600,1.7777666015625,2.181507003980875,7.8459788730740545,5.666635769128799
1682096483358895600,1.7978955078125,5.156693027347326,13.694171817314624,1.3542325889855622
1682096483379023600,1.818023681640625,2.1131308023691178,14.416687634718418,-2.386700490745902
1682096483399151600,1.838151611328125,-5.1114907805740835,10.029476758611201,-20.392570554804802
1682096483419280600,1.85828076171875,-6.874501154327392,6.720121908998489,-31.40187200474739
1682096483439408600,1.87840869140625,-4.986086285316944,3.4259383250325914,-20.580569161140918
1682096483459537400,1.898537353515625,-6.8081731174170965,1.425055014705658,-10.13727662359476
1682096483479665400,1.91866552734375,-7.329312960517406,-1.1896429152876138,-5.308866287064552
1682096483499793400,1.93879345703125,-7.684203087753057,-5.4068391700387,-2.77522166942656
1682096483519922400,1.95892236328125,-6.241264041310548,-8.939609976327418,-0.7620207293182611
1682096483540050400,1.979050537109375,-3.436708140850067,-12.507898670721053,2.7472049507319927
1682096483560179500,1.999179443359375,-2.455776365059614,-15.54070452388525,4.622656877794862
1682096483580307500,2.019307373046875,-2.0223931313455106,-16.402642840504644,4.492150090962648
1682096483600435500,2.039435546875,-0.6191548847157508,-16.115863541942833,4.994837162527442
1682096483620564700,2.059564697265625,0.4345768274128437,-15.985665967190265,5.935327622336149
1682096483640692500,2.0796923828125,-1.2544225537121296,-15.199141495734452,6.107247200530767
1682096483660820500,2.099820556640625,-5.490118341749906,-13.862242903387546,3.1396897723466157
1682096483680949800,2.11994970703125,-8.047716081905364,-12.812338713657855,-1.4242214864909648
1682096483701077800,2.140077880859375,-6.011432372373342,-10.00831239002943,-4.687230764514208
1682096483721206800,2.160206787109375,-3.681639179241657,-4.223210108213126,-7.327416186985373
1682096483741334800,2.180334716796875,-8.586714237779379,-0.48340837059915065,-16.73060988950133
1682096483761462800,2.200462890625,-10.13793128811121,3.0953344977915287,-25.69243286668062
1682096483781591600,2.220591552734375,-4.21640539663434,12.316446709060669,-26.70533448270559
1682096483801719600,2.240719482421875,-0.3785843430886045,14.34849848011136,-18.9228007845819
1682096483821848000,2.26084814453125,-1.582272698330879,13.16608200894594,-9.711264795431495
1682096483841976000,2.28097607421875,-3.405784594798088,12.477424037480354,-3.019477000513673
1682096483862105000,2.30110498046875,-3.4362112972438332,11.435590926003455,3.086266225194931
1682096483882233000,2.321233154296875,-1.8277812443494796,11.421140375846624,9.718516958516835
1682096483902361000,2.341361083984375,-1.241648412334919,10.801968028539418,13.123224863994121
1682096483922490000,2.361489990234375,0.12789459503982215,9.645448215174675,14.61701965292692
1682096483942618000,2.3816181640625,4.378582163971663,9.994806427246331,18.53778206106424
1682096483962747100,2.4017470703125,7.581396208751201,11.577643773722649,22.062876925897598
1682096483982875100,2.421875244140625,6.514452036893368,11.426514470100402,20.389411798512935
1682096484003003100,2.442003173828125,3.0217350085735317,10.488915640079975,13.41295482905507
1682096484023132400,2.46213232421875,0.8264554998278617,9.039730392724275,7.532263636791706
1682096484043260200,2.48226025390625,3.5433272716164588,6.651448770266771,3.668874974736571
1682096484063389200,2.50238916015625,7.403924841648339,8.19513308700621,1.1896283022403715
1682096484083517400,2.522517333984375,8.647386440885066,15.96881537015438,-0.07714110734760761
1682096484103645400,2.5426455078125,-2.408839403448254,14.285584051036833,-8.27288443520665
1682096484123774200,2.562774169921875,-6.407102253764867,11.752495313715935,-23.78844867261648
1682096484143902200,2.582902099609375,-4.88767851805687,5.098008198666572,-28.68571802583933
1682096484164031200,2.60303125,-3.4160148969113826,3.093850396713614,-15.35834538474083
1682096484184159200,2.6231591796875,-4.819650691491365,1.362644443500042,-8.914241726315021
1682096484204288300,2.643288330078125,-5.598229172378778,-3.2039901028215882,-7.365983525788784
1682096484224416300,2.663416259765625,-6.7693234545409675,-7.582521997910738,-4.711003269767761
1682096484244544300,2.683544189453125,-6.97019907810688,-11.31415065820217,-1.0226210460066796
1682096484264673300,2.70367333984375,-5.79295094949007,-15.242366889476775,3.5481180130243297
1682096484284801300,2.72380126953125,-3.1328210556209086,-17.09488977637291,5.465415862169862
1682096484304930300,2.743930419921875,-1.7554618580698966,-17.515049955898522,5.988679857817292
1682096484325058300,2.764058349609375,-2.481844872295856,-18.049244510883092,4.551600643318891
1682096484345186300,2.784186279296875,-2.8216508276462555,-17.287266451662777,4.508650559386611
1682096484365315000,2.804315185546875,-2.808370490312576,-15.452910505098103,4.62784450956583
1682096484385443300,2.824443359375,-4.048296901160478,-12.96785426954031,3.804304020401835
1682096484405572000,2.844572021484375,-8.05842919909954,-10.251588062429427,1.8414403518676756
1682096484425700000,2.8647001953125,-9.424735087716579,-6.970677217012644,-2.790585827296972
1682096484445828000,2.884828125,-7.492450681841373,-1.7110504694133997,-9.645883099460601
1682096484465957000,2.90495703125,-8.399131811028719,3.329251974737644,-18.416346469438075
1682096484486085000,2.925085205078125,-8.136079425013065,8.500815238958596,-25.439337226533887
1682096484506214100,2.945214111328125,-7.377320912361145,14.583577986574172,-27.56788537826538
1682096484526342100,2.965342041015625,-4.790859481292963,15.719150873500109,-16.153173574161528
1682096484546470100,2.98547021484375,-2.6291373742341992,14.847195020735263,-4.179086012065411
1682096484566599200,3.00559912109375,-2.930616229277849,12.31349721160531,-0.4653162490695715
1682096484586727200,3.02572705078125,-1.5762439395606518,9.887540815269947,3.29684608117342
1682096484606856200,3.045856201171875,0.6188192960858344,7.162717207694053,6.91874244711399
1682096484626984200,3.065984130859375,2.668163562721014,6.09819763263464,10.945602592492103
1682096484647112200,3.0861123046875,2.5277345168113707,5.74074963760972,12.39492344892621
1682096484667241200,3.1062412109375,3.6436382421493527,6.251963714501262,13.877194973325729
1682096484687369200,3.126369140625,5.633477011370658,7.778451397246122,16.3834038870275
1682096484707498200,3.146498291015625,5.942863278537988,10.128887565433978,19.165570261025426
1682096484727626200,3.166626220703125,3.5801240936160084,10.75313940796256,17.600218302357195
1682096484747754000,3.18675390625,0.5681997735042125,10.419889450126886,12.120813077801465
1682096484767883300,3.20688330078125,-0.6958943524599075,8.975743950504064,5.65602202065587
1682096484788011300,3.22701123046875,4.096201977151632,9.68523545116186,0.7338543730199336
1682096484808140300,3.247140380859375,8.749109616303443,14.834237339484691,2.578880182158947
1682096484828268000,3.26726806640625,-1.6109169012740254,13.61896255481243,-8.390387948080896
1682096484848397000,3.28739697265625,-10.013571917992829,12.955852866101264,-26.663999432754515
1682096484868525000,3.307525146484375,-6.8427733061552045,5.4567965023845435,-25.28650111899376
1682096484888653000,3.327653076171875,-4.859988547098636,2.062294056840241,-15.548632978796958
1682096484908782000,3.347781982421875,-4.344198248332739,-0.2109644713819027,-9.753044666540623
1682096484928910000,3.36791015625,-1.9070085103213785,-3.3853765975415704,-4.872471012052894
1682096484949038000,3.3880380859375,-0.6830373551048338,-7.702372950693965,-0.3981611136853695
1682096484969167000,3.4081669921875,-0.3497136744458228,-11.346852319842576,1.9997242034196852
1682096484989295000,3.428295166015625,-1.213234803277254,-15.871160467088222,2.508742816093564
1682096485009424000,3.448423828125,-0.5954980417311191,-16.860056938147544,5.256731610679626
1682096485029551900,3.4685517578125,-0.20880174039006233,-16.300515175938607,5.915293719089031
1682096485049680000,3.488679931640625,-1.4556675951123237,-16.015972258126734,5.172720033040642
1682096485069809000,3.508808837890625,-4.1655601755380625,-15.44862712869048,4.184627279579639
1682096485089937000,3.52893701171875,-6.833584622049331,-14.546276137661932,2.3709902959167954
1682096485110066000,3.54906591796875,-8.356552898496389,-12.77929919836521,1.0557651907175778
1682096485130194000,3.56919384765625,-7.834234659266471,-10.731704990267753,-0.7076198615670204
1682096485150322000,3.589322021484375,-5.5532852842807765,-7.0961530239403245,-4.034874525007606
1682096485170451000,3.609450927734375,-6.7679977588951585,-3.825722656005621,-12.057607556825875
1682096485190579000,3.629578857421875,-10.725990704274176,1.0934516550332307,-21.75126830650568
1682096485210708000,3.6497080078125,-8.47702987422347,8.088189546591043,-25.035268934631347
1682096485230836000,3.6698359375,0.2525344991326332,14.662168123686312,-22.67519400048256
1682096485250964000,3.6899638671875,3.5328315965652464,13.088960190820693,-14.942747983086107
1682096485271093000,3.710093017578125,-0.9003566023409366,10.228548547625541,-8.206806573665142
1682096485291221000,3.730220947265625,-4.889775782597065,9.7523940936774,-2.5585019955188035
1682096485311349800,3.750349853515625,-5.229896210724115,9.819072259199618,3.270146290296316
1682096485331477800,3.770477783203125,-2.8387188668251038,9.858688814795016,11.270948645335436
1682096485351606000,3.79060595703125,-0.8165981226801872,9.278840177616477,15.454650042241811
1682096485371734800,3.81073486328125,0.5907680905997753,8.981336071422696,15.860363178741931
1682096485391862800,3.83086279296875,2.9676503671646115,8.729574894750117,17.60863541756868
1682096485411992000,3.850991943359375,4.485491217595339,10.625355908614397,19.01110684454441
1682096485432119800,3.871119873046875,3.995957642114162,11.943900513625143,19.777613779366014
1682096485452249000,3.8912490234375,3.5651451356709,12.55648880636692,16.33971321386099
1682096485472377000,3.911377197265625,2.909253123253584,10.741433772599697,9.816108733218908
1682096485492505000,3.931505126953125,2.9316321283221245,8.501993635088205,2.03625156082809
1682096485512634000,3.951634033203125,6.187869135731458,12.177372584891318,0.6623883886992931
1682096485532762000,3.97176220703125,7.284146369579434,14.938655160814523,0.5450736763954163
1682096485552890000,3.99189013671875,-0.3070072630763054,11.731052712714671,-17.102464011019467
1682096485573019100,4.01201904296875,-5.799309378606081,7.850395520472526,-30.462980212306974
1682096485593147100,4.032147216796875,-2.8158824733778833,5.830742627745867,-23.42477318137884
1682096485613276000,4.05227587890625,-2.7408769167542455,2.6984479340866208,-12.030428457999228
1682096485633404000,4.07240380859375,-4.744042785060405,-0.1211298866778612,-8.460478552395104
1682096485653532000,4.092531982421875,-7.85725196223855,-4.199592793521285,-5.15394518994391
1682096485673661000,4.112660888671875,-8.333484157598019,-7.76415106921494,-1.538888899156451
1682096485693789000,4.132788818359375,-7.763060935890674,-12.06875205117464,1.6124954026371239
1682096485713918000,4.15291796875,-4.676543366283178,-15.468429561269282,4.01733360762
1682096485734046000,4.1730458984375,-2.464221537321806,-16.20358391097188,4.539338543117046
1682096485754174000,4.193174072265625,-0.8548327223978937,-15.969116983449458,4.435683522853255
1682096485774303000,4.213302978515625,0.1025602107644081,-15.974831269443035,4.401900495716929
1682096485794431000,4.233430908203125,-1.5658661918006835,-14.97864464137554,4.910540338206291
1682096485814560000,4.25356005859375,-4.521097953027486,-12.943956676602363,4.398353616890311
1682096485834689000,4.27368896484375,-8.050973037874698,-10.473843158632516,4.282073508331179
1682096485854817000,4.293817138671875,-8.871079460936784,-8.350586099046469,2.812457467365265
1682096485874945800,4.31394580078125,-7.13506581518054,-7.34251029574275,-4.757023847186565
1682096485895073800,4.33407373046875,-7.082085920143127,-3.2930662703737617,-14.40032569798231
1682096485915202800,4.354202880859375,-11.449053634166717,0.39358299211487174,-24.39037996226549
1682096485935330800,4.374330810546875,-8.73218069333434,7.33128279928565,-27.849657662320137
1682096485955459800,4.3944599609375,-3.7952176276266574,13.615166669660805,-25.605119324886797
1682096485975587800,4.414587890625,-0.9967688849348574,14.39643044410944,-14.127705857676267
1682096485995715800,4.4347158203125,-1.351817929059267,13.366645497822761,-6.965884137517214
1682096486015844900,4.454844970703125,-1.661618037724495,11.708396644270419,-2.9989433310508726
1682096486035972900,4.474972900390625,-0.9653857585471123,9.6962566113919,1.7458815442979334
1682096486056102000,4.495101806640625,2.139413244616985,8.156373440501094,9.333374900880456
1682096486076230000,4.51522998046875,3.082244714593887,9.706177701425553,15.34116511735916
1682096486096358000,4.53535791015625,0.6439360555551946,11.662600523257256,17.634443228042123
1682096486116487000,4.55548681640625,0.9712041625022888,12.607135290020704,19.632458289456366
1682096486136615000,4.575614990234375,3.854189748816192,13.814025692707299,21.60088719090223
1682096486156743700,4.59574365234375,6.130757839977741,14.638886616820097,24.297938994455336
1682096486176871700,4.61587158203125,3.293158917093277,13.82172501503825,17.973671675765512
1682096486196999700,4.635999755859375,-0.509293191831559,11.96321077877283,8.256158925855159
1682096486217128700,4.656128662109375,0.5397640256799757,9.604327684757113,2.248371631985903
1682096486237256700,4.676256591796875,6.20508096729517,12.431163806086778,0.6206587864726781
1682096486257385700,4.6963857421875,6.716727590385079,15.76433441557288,-1.9432137961685656
1682096486277513700,4.716513671875,-3.266085616728663,13.591459630858898,-17.5864457975924
1682096486297643000,4.73664306640625,-9.213022428315877,9.301056101077794,-36.73217154046297
1682096486317770800,4.756770751953125,-5.9109267560511825,2.668579157784581,-28.68766799086332
1682096486337898800,4.776898681640625,-4.068419359473884,0.05481704733669757,-14.11134275189638
1682096486358028000,4.797028076171875,-4.189081336379051,-1.6723074817821382,-8.320143029987811
1682096486378156000,4.817156005859375,-3.3529414778828617,-4.923523738420009,-5.149951736393571
1682096486398284800,4.837284912109375,-1.8681870506264269,-9.231935218578576,-2.4758453396201134
1682096486418412800,4.857412841796875,-1.7611632845818996,-14.211454984986782,-0.03874795606732368
1682096486438541000,4.877541015625,-0.7379005796708166,-16.70940460438728,2.6435446697711944
1682096486458669800,4.897669921875,-1.5494820432327687,-17.55486875606775,4.07263113195002
1682096486478797800,4.9177978515625,-3.2355729895651337,-17.533716077923774,4.3083109423935415
1682096486498926800,4.9379267578125,-4.405818545943498,-17.319513355273006,4.350012487569451
1682096486519054800,4.958054931640625,-4.33669766344428,-15.933226170378923,4.254199997499585
1682096486539182800,4.978182861328125,-4.650611637169122,-13.973646930342912,3.5861370702952144
1682096486559312000,4.998311767578125,-5.9908735684692855,-11.94612871106863,2.5673551640599963
1682096486579439900,5.01843994140625,-6.762872670966386,-10.342155053061246,0.46548225328624243
1682096486599569000,5.03856884765625,-6.54294514092803,-8.288107723301648,-4.434568839609622
1682096486619697000,5.05869677734375,-7.063223398762941,-3.5967952424317597,-13.17386082625389
1682096486639825000,5.078824951171875,-12.073278588688373,1.4126732336468995,-23.504270496463775
1682096486659954000,5.098953857421875,-10.241893182367086,7.920145933046936,-29.054792161250113
1682096486680082000,5.11908203125,-5.0345466571032995,14.572908123999833,-29.767371106529232
1682096486700210700,5.139210693359375,-4.732041381621361,14.274185874187946,-19.638411060380935
1682096486720339000,5.1593388671875,-6.2199512041687965,13.773897095936537,-10.1257521900177
1682096486740467700,5.1794677734375,-5.514379507303238,13.612841441583633,-4.267518328756093
1682096486760595700,5.199595703125,-1.9593337408423424,12.65572308757901,1.8463783927917479
1682096486780723700,5.2197236328125,1.3690743304170667,11.038284383320807,9.3615459333539
1682096486800852700,5.239852783203125,2.7706746736466883,11.15411674811244,14.058542889600991
1682096486820980700,5.259980712890625,2.897631659042835,12.880742972320318,18.07862024297118
1682096486841109200,5.280109130859375,4.30575891982317,13.131071485841273,21.799732185423373
1682096486861237200,5.3002373046875,4.779852934110164,14.07814424664974,23.207625637447833
1682096486881365200,5.320365234375,3.4546576390385626,14.085730171734093,20.831350094604492
1682096486901494300,5.340494384765625,0.8462764909766614,13.27330319725871,14.995705666291713
1682096486921622300,5.360622314453125,-0.8282546582043171,12.245023979359864,9.65664765458107
1682096486941751600,5.38075146484375,-0.2926153112389147,10.684310786408185,5.050481892859936
1682096486961879600,5.400879638671875,3.846964181476831,10.39000635303855,0.8938011893481016
1682096486982007300,5.42100732421875,6.196440564721822,15.590291853874922,0.15376549734473227
1682096487002136600,5.441136474609375,-2.170567092293501,14.17342949797511,-9.496215685084461
1682096487022264600,5.4612646484375,-8.187011155349015,8.84161780413091,-31.16490215449333
1682096487042393300,5.481393310546875,-4.7719268172860145,2.3034786021798848,-35.36194000283479
1682096487062521300,5.501521240234375,-0.048411418078094716,1.0628621632412076,-19.22384709342718
1682096487082650400,5.521650390625,-2.409517156579345,-0.14150047453343867,-10.380355896639823
1682096487102778400,5.5417783203125,-4.446988760721683,-2.3826851176247,-6.392732952150702
1682096487122906400,5.56190625,-5.200211851078271,-5.995797580868006,-1.9180203182011841
1682096487143035400,5.582035400390625,-5.441336482924223,-9.431676869678498,2.5006530331403014
1682096487163163400,5.602163330078125,-4.953357735669613,-12.376138084435462,5.324941223552822
1682096487183292400,5.62229248046875,-3.7877030142128465,-16.314370682811735,5.832319083282351
1682096487203420400,5.64242041015625,-2.422858284189552,-17.951980068439244,5.763860464084148
1682096487223548400,5.66254833984375,-1.779958001422882,-17.651211992013454,5.304117631232738
1682096487243677400,5.682677490234375,-2.192152316635847,-17.034132233071325,5.728045638859272
1682096487263805400,5.702805419921875,-4.721901095879078,-15.506552078914641,3.376136475509405
1682096487283934500,5.7229345703125,-8.194359764546155,-14.47598738042712,-1.4737112013250588
1682096487304062500,5.7430625,-6.112415543079376,-13.075057922196388,-3.2308085516422986
1682096487324190500,5.7631904296875,-3.3625416653990743,-10.055961445432901,-3.2357267188221215
1682096487344319200,5.7833193359375,-8.097324454683065,-3.4002480034589766,-6.151922208559513
1682096487364447200,5.803447265625,-19.2037430475533,4.204700345793366,-13.536750720071792
1682096487384576300,5.823576171875,-15.358274073070287,7.220286184087395,-18.313769892060755
1682096487404704300,5.843704345703125,-3.3560312605917453,10.130177020722627,-17.99643178910613
1682096487424832300,5.863832275390625,6.958756477594375,11.08662200551033,-15.8110342074275
1682096487444961300,5.883961181640625,3.558177634745836,7.365116095304488,-12.129350604522228
1682096487465089300,5.90408935546875,-1.470170752239227,7.358820210030674,-7.6368047922402615
1682096487485218300,5.92421826171875,-3.5309026743292806,8.055404298320413,-2.5865344963043926
1682096487505346300,5.94434619140625,-1.488455765992403,9.039514704146981,3.537326569896936
1682096487525475300,5.964475341796875,0.8498504039406776,9.204803466024995,9.957561861479281
1682096487545603300,5.984603271484375,2.331557134064287,8.918111261224746,15.12353826547861
1682096487565731300,6.0047314453125,1.0804441432915628,9.764700617542863,17.184134578490255
1682096487585860600,6.024860595703125,-0.28768413844704627,11.644365778386593,18.41717181434631
1682096487605988400,6.04498828125,0.6964183763340115,14.29045896359682,18.221207343697547
1682096487626117400,6.065117431640625,1.326161217494309,13.63539346513152,15.5507957097888
1682096487646245400,6.085245361328125,1.2663809947922826,11.791792720359563,7.864414693474769
1682096487666373400,6.105373291015625,0.8091489757180214,10.105260021609068,2.147228302282095
1682096487686502400,6.12550244140625,2.193734032869339,11.08335686623454,-0.07795768442749977
1682096487706630400,6.14563037109375,5.963632510322332,15.969265452009438,-2.0325719955325123
1682096487726759400,6.165759521484375,3.972647493675351,13.118773145282267,-9.161963856729864
1682096487746887400,6.185887451171875,0.700453330938518,11.854696628040074,-20.144307741641995
1682096487767016400,6.206016357421875,-3.136807787169516,11.839977197813987,-16.912448804163933
1682096487787144400,6.22614453125,-7.616548186153173,10.302091922742127,-10.908571961736678
1682096487807272400,6.2462724609375,-11.328658491504191,3.5957542089462278,-8.394611118733883
1682096487827401700,6.266401611328125,-11.414625294864177,-3.5593501856565473,-8.542714937055111
1682096487847529700,6.28652978515625,-8.975857347750663,-9.549646246498822,-10.028055201375484
1682096487867658800,6.30665869140625,-4.642156235773861,-14.126242214864492,-5.6189329377114765
1682096487887786800,6.326786865234375,-2.1990593195453285,-17.789058620214462,-0.11283844367265701
1682096487907914800,6.346914794921875,-2.3214596645504235,-18.937209249162674,3.161156923267245
1682096487928043800,6.367043701171875,-5.552866182085872,-18.797053759497402,4.32091966407597
1682096487948171800,6.387171875,-9.192710292649268,-17.11864825310111,4.839957566460967
1682096487968300800,6.40730078125,-11.561915458714962,-15.552439385342597,4.85971966702938
1682096487988428800,6.4274287109375,-10.825722998136282,-13.552490725517272,5.335044684416055
1682096488008556800,6.447556884765625,-11.692888109493255,-9.552228664207458,6.699185503953695
1682096488028685800,6.467685791015625,-8.47122907899022,-10.449119051742553,3.937264045605063
1682096488048813800,6.487813720703125,-9.353988065320253,-6.126393215027451,-2.739060807242989
1682096488068942800,6.50794287109375,-6.446175204002857,-2.707723711954057,-7.7975939046114675
1682096488089070800,6.52807080078125,-8.878401182126998,6.657499740868807,-12.688389677906036
1682096488109200000,6.548199951171875,-4.8917982283353805,7.765922755062579,-16.027960802084205
1682096488129327900,6.568327880859375,-3.9918133819162844,12.262821501857042,-19.459089096975326
1682096488149456000,6.588455810546875,-3.8270997895777223,11.656852334994078,-21.39808849031925
1682096488169584600,6.608584716796875,-0.7002543012350797,10.975502056193351,-11.919918749535084
1682096488189712600,6.628712646484375,1.7724539094030856,9.217917214620114,-8.638962311410904
1682096488209841700,6.648841552734375,4.2958518583148715,6.281708279901743,-5.0251422844201326
1682096488229969700,6.6689697265625,7.416547591856122,5.010673029562831,0.892677738276124
1682096488250097700,6.68909765625,9.146116299256683,4.059245580676198,7.110020221251249
1682096488270226700,6.709226806640625,8.354749063944816,2.835470678684115,9.834991128343344
1682096488290354700,6.729354736328125,5.892795471554995,4.0121269788876175,12.495080105680227
1682096488310483700,6.749483642578125,5.507214437979459,7.078298802819847,14.250582880282401
1682096488330611700,6.76961181640625,7.325864281368255,10.030956768035889,15.405809731227158
1682096488350740700,6.78974072265625,6.454391243684292,12.018980012267827,16.629897936952112
1682096488370868700,6.80986865234375,1.8452946892082691,11.539087540835142,13.959079475808142
1682096488390996700,6.829996826171875,-1.6014520305752753,11.72824116242528,10.96528461356163
1682096488411125800,6.850125732421875,1.0667407582402229,14.30167009344101,9.359002678611875
1682096488431253800,6.870253662109375,2.742263402676582,18.61534928486943,4.3665129559934135
1682096488451382500,6.890382568359375,-0.5292192507900297,16.12388668940067,-2.9440900433570145
1682096488471510500,6.910510498046875,-1.336462100625783,13.127334052878618,-15.094367116051911
1682096488491639800,6.930639892578125,1.208607727998495,9.556502103742957,-27.720576524376867
1682096488511767800,6.950767822265625,1.309430885837227,2.854378500510752,-19.47888334624767
1682096488531895600,6.9708955078125,-2.1611507369115945,-0.7881231388241052,-13.888999977409838
1682096488552024800,6.99102490234375,-8.456220894950627,-4.028004346977174,-10.121824202919006
1682096488572152800,7.01115283203125,-13.575961617475746,-7.594483653861284,-8.809895801177621
1682096488592281900,7.03128173828125,-11.709570364224911,-10.727559561026096,-3.247853794467449
1682096488612409900,7.051409912109375,-4.166653231471777,-14.502069916188717,2.027386117327213
1682096488632537900,7.071537841796875,0.7368189949791878,-17.743643607473373,5.007292154952883
1682096488652667000,7.0916669921875,-0.8533820121329277,-18.3128264737308,6.273158478221297
1682096488672795000,7.111794921875,-6.827191121619939,-16.553080070209504,2.7195857069224116
1682096488692924000,7.131923828125,-8.314315346747636,-15.715322255122661,0.13690028726160525
1682096488713052000,7.152052001953125,-5.272001660525799,-14.092999285954237,0.8645540520757437
1682096488733180700,7.1721806640625,-4.99086767437458,-12.52081192830801,1.1242933680206537
1682096488753308700,7.19230859375,-5.377306786084175,-11.314992369723319,-0.5962421380966901
1682096488773436700,7.212436767578125,-3.713556997027993,-8.689888781049847,-4.273229107618332
1682096488793565700,7.232565673828125,-4.083755168032646,-3.7309491535946724,-10.560311481773853
1682096488813693700,7.252693603515625,-5.731509515577554,4.768531329628825,-16.971546305298805
1682096488833822700,7.27282275390625,-3.828621884578466,9.104000912582874,-20.205649806833264
1682096488853950700,7.29295068359375,1.078475692762807,13.209679158610104,-22.20679556748867
1682096488874078700,7.31307861328125,0.23698745897598564,12.692945441514253,-19.796524231541156
1682096488894207700,7.333207763671875,-5.542083506786823,12.574052520108221,-11.632503491157292
1682096488914335700,7.353335693359375,-7.359360892778635,12.921394131660461,-2.8470576561033725
1682096488934464800,7.37346484375,-5.726065278697013,12.078547469002007,4.169802050891518
1682096488954592800,7.3935927734375,-3.618805414187908,10.113305380898714,7.946866766712069
1682096488974721800,7.4137216796875,-1.6550997418716549,7.920052994066476,9.861321501386165
1682096488994849800,7.433849853515625,1.681903285384178,7.038660619914531,13.247123630863427
1682096489014977800,7.453977783203125,4.49768551325798,7.949601744633912,17.618719589209554
1682096489035106600,7.4741064453125,3.891930281406641,10.181460633236169,19.914118345308303
1682096489055234600,7.494234619140625,1.8014039634250103,11.328013179337978,20.034335793316362
1682096489075363600,7.514363525390625,0.40839945297464725,11.523792941069603,18.168804956287143
1682096489095491600,7.53449169921875,0.7211198330007493,10.815102235400676,14.037543356192112
1682096489115620600,7.55462060546875,0.3285702755868435,8.939808713769912,7.918484137314557
1682096489135748600,7.57474853515625,-0.7346189276516437,8.683494696098565,3.879260184925794
1682096489155876600,7.594876708984375,1.1686987653277814,12.371491135412453,0.05235621018111705
1682096489176005600,7.615005615234375,3.2811750493109226,14.481146370625495,0.15092530548274516
1682096489196133600,7.635133544921875,-1.4714743821837006,9.654021982252598,-18.895472048151493
1682096489216263000,7.655262939453125,-4.9340492240875955,7.149803950107097,-32.07472684240341
1682096489236391000,7.675390869140625,-4.441523481053114,6.105864221739768,-20.27200005557537
1682096489256519700,7.695519775390625,-7.623866400212049,2.384742634676397,-11.759409038627147
1682096489276647700,7.715647705078125,-9.909754985165595,-1.8845745601952075,-10.201208120757341
1682096489296776000,7.73577587890625,-10.46404540271759,-6.167080614724755,-7.923081401976942
1682096489316904700,7.75590478515625,-5.966584345865249,-9.223635007745028,-4.276044165039062
1682096489337032700,7.77603271484375,-0.7775031067408621,-12.16858605184555,1.1367647270590067
1682096489357161700,7.79616162109375,0.07659691746830939,-14.150090707963704,4.228070699986815
1682096489377289700,7.816289794921875,-4.056987572616339,-14.560854113590716,3.88449048679471
1682096489397417700,7.836417724609375,-5.901556285637617,-14.023676158881187,4.224215193602443
1682096489417546800,7.856546630859375,-3.952766150641441,-13.739085310274362,7.323907302081585
1682096489437674800,7.8766748046875,-2.961004353278875,-14.342095627331734,8.636139070683717
1682096489457803800,7.8968037109375,-6.17546324314475,-14.045226311910152,6.042402095654606
1682096489477931800,7.916931884765625,-9.142865773028134,-13.325073131984471,1.9523790993988512
1682096489498060800,7.937060791015625,-6.776176389175653,-12.45980537868142,-2.0767343778640033
1682096489518188800,7.957188720703125,-3.8943046093225475,-10.185230799424648,-5.278699696859717
1682096489538316800,7.97731689453125,-6.122352999725938,-6.532906561994552,-12.271913155329226
1682096489558445600,7.997445556640625,-14.76760184406042,-4.456173353174329,-23.4829985758543
1682096489578573800,8.01757373046875,-12.206944716334343,5.121410117042064,-29.28187657730579
1682096489598702600,8.03770263671875,-5.950428160834312,11.253804618310928,-27.539061434841155
1682096489618830600,8.05783056640625,-1.6201964785337448,11.62137419437766,-21.8347847941041
1682096489638959600,8.077959716796874,-2.1990964366853234,11.407183162164687,-13.223206164181232
1682096489659087600,8.098087646484375,-3.6609313222557303,11.468978816342354,-7.255176295682787
1682096489679215600,8.118215576171876,-2.5685949349880217,12.539306200897693,0.14138824633061886
1682096489699344600,8.1383447265625,-0.056228667700290676,13.87773273346424,7.992010561296343
1682096489719472600,8.15847265625,1.8005331719398499,14.577823953092098,14.256760107612608
1682096489739601700,8.1786015625,2.983186958992481,15.30231779257059,16.90361550936699
1682096489759729700,8.198729736328126,1.4757190340161324,17.69731907867193,17.407603142136335
1682096489779859000,8.21885888671875,1.9041501982808111,19.35087305240631,21.105313166213033
1682096489799986700,8.238986572265626,2.612379131656885,18.915156407308576,23.15697798475027
1682096489820114700,8.25911474609375,1.4372832126379012,17.39950400683284,16.20233420317173
1682096489840243200,8.2792431640625,-0.5649592572130262,15.713835231435297,8.354904546767473
1682096489860371200,8.29937109375,0.9363875545345246,14.300163196009397,4.321618167734146
1682096489880500200,8.319500244140626,5.85257568936944,14.289509700047969,2.4400550643146035
1682096489900628200,8.339628173828125,8.091620690083504,16.638244909536837,-2.7952041347473857
1682096489920757200,8.35975732421875,2.179007588380575,15.278244843065737,-14.474771574896574
1682096489940885200,8.37988525390625,-3.5981367201685903,11.768154655140638,-23.457808020496365
1682096489961014300,8.40001416015625,-3.744482296645641,9.66904945551455,-23.54676289975643
1682096489981142300,8.420142333984375,-6.513018789219855,7.894008452227712,-15.0849142280519
1682096490001270300,8.440270263671875,-16.35416376401782,-0.3994587522804737,-16.902016257476806
1682096490021399300,8.4603994140625,-15.733344234025477,-7.593761184805631,-20.541579213011264
1682096490041527300,8.48052734375,-7.229259179615974,-13.703050704818963,-19.112238483810422
1682096490061656300,8.50065625,1.4262953701555727,-18.001624681574103,-4.7225119212538
1682096490081784300,8.520784423828125,-2.6953227878034114,-16.32250956560373,3.5339211453676223
1682096490101913000,8.5409130859375,-7.823253831046819,-16.321430538195372,3.9836704074710605
1682096490122041300,8.561041259765625,-8.834467347854375,-17.34678831568956,5.547682057446241
1682096490142169300,8.58116943359375,-6.527872659480571,-17.27508384643793,6.13601795246303
1682096490162298000,8.601298095703125,-5.1849546607136725,-16.113472847414016,3.6338083375304935
1682096490182426000,8.621426025390624,-5.4507987232744695,-14.11574303268194,2.7714684543728825
1682096490202555100,8.64155517578125,-6.6117410292565815,-10.601854621517658,2.674895501324534
1682096490222683100,8.66168310546875,-8.338076161563396,-8.290490819045901,2.354031562331319
1682096490242811100,8.68181103515625,-8.247505663800238,-6.408510366997122,-1.5697060622245071
1682096490262940200,8.701940185546874,-7.688687539690733,-2.1507170211806894,-10.830461132574081
1682096490283068200,8.722068115234375,-8.617642460006476,3.372273954862356,-19.27349287560582
1682096490303197200,8.742197265625,-9.65802595719695,8.732514455333352,-24.140036251175403
1682096490323325200,8.7623251953125,-6.457269429469108,13.646802163374423,-26.62716052517891
1682096490343454200,8.7824541015625,-1.4149755192399025,15.98423739569187,-19.500854355037212
1682096490363582200,8.802582275390625,-0.517196073910594,14.589541278892755,-6.130211896532773
1682096490383711000,8.8227109375,-1.4208224917024372,11.966463058567047,-1.2074895376235246
1682096490403839200,8.842839111328125,-0.4284977997601032,10.926517952793835,2.5751041707515716
1682096490423967200,8.86296728515625,1.851710401469469,10.609574986636638,8.222529043453932
1682096490444096300,8.88309619140625,2.77272283834815,10.120568649899958,11.674315510970354
1682096490464224000,8.90322412109375,2.589083596265316,9.78891268325746,12.603365123832225
1682096490484353300,8.923353271484375,3.687093937516212,11.79135082181096,14.660664733386039
1682096490504481300,8.943481201171876,4.250085547918081,14.638502001416683,18.341286844539642
1682096490524610300,8.9636103515625,3.961358622419834,14.650889189302921,19.744943681907653
1682096490544738300,8.98373828125,3.4169711747229097,13.085248476821183,17.09037259120941
1682096490564866300,9.0038662109375,2.479299863988161,11.659406695652008,12.490254292958975
1682096490584995300,9.023995361328126,1.291531510400772,11.81029985243082,8.237596848726271
1682096490605123300,9.044123291015625,0.9253013662442564,12.14732348358631,3.7574288719803093
1682096490625252400,9.06425244140625,3.8543595524251457,16.03138493131399,-2.047065800309181
1682096490645380400,9.08438037109375,0.8708454073049128,14.508282214832304,-9.296374080741405
1682096490665509000,9.104509033203126,-9.802405202037095,14.454577512651682,-22.772479485714435
1682096490685637000,9.12463720703125,-13.452143514627217,10.069303742086888,-28.347576788830754
1682096490705766100,9.14476611328125,-10.674557454156876,5.236842084339261,-19.203544310110807
1682096490725894100,9.16489404296875,-8.154742039906978,0.46614334754347797,-9.20505364139378
1682096490746022100,9.185022216796876,-8.1826593898803,-2.7657044840186833,-6.023926527765393
1682096490766151200,9.205151123046875,-8.28357358700335,-6.190425834476947,-7.090626953995227
1682096490786279200,9.225279052734376,-4.98324024823606,-13.499139074558018,-8.95696910740733
1682096490806408200,9.245408203125,1.1198889955818652,-20.569477273762224,-4.8416111788868905
1682096490826536700,9.26553662109375,2.6287784777939316,-19.89914990875721,-2.98939984215796
1682096490846666000,9.285666015625,0.7360790633320808,-17.31863657243848,-3.284532543045282
1682096490866794000,9.3057939453125,0.8372931201845407,-18.022773852586745,-0.32873978693485256
1682096490886921700,9.325921630859375,-0.6291904679745436,-17.497031484127042,1.2325573433846235
1682096490907050800,9.34605078125,-5.569951172399521,-14.899611436671018,3.210852389806509
1682096490927178800,9.3661787109375,-13.038345271348952,-11.757143431782723,2.7547932139039037
1682096490947307800,9.386307861328126,-16.180426322746275,-10.798909810012578,-3.092644528055191
1682096490967435800,9.406435791015625,-9.992413394629954,-8.718416371876001,-7.765978869163989
1682096490987564800,9.426564697265626,-4.69062099147439,-0.9721680390983819,-8.437258420327305
1682096491007692800,9.44669287109375,-7.462662277299165,7.395359842398762,-11.66132158936262
1682096491027820800,9.46682080078125,-9.933943670004606,10.873452717560529,-16.44297485089302
1682096491047949800,9.48694970703125,-5.102229615753889,15.133592041981219,-19.541000487464665
1682096491068077800,9.507077880859375,-1.5361229415744542,19.08432639453411,-17.576582575225828
1682096491088206800,9.527206787109375,-1.6102864944159985,17.74039015863538,-7.922311002126335
1682096491108334800,9.5473349609375,-2.6112854912012815,14.997216070854662,-2.9570225901663303
1682096491128464000,9.5674638671875,-3.507727550446987,12.038663202381134,0.9601987843632698
1682096491148591900,9.587591796875,-0.9246989433716982,8.999870676022768,5.708942294460535
1682096491168720600,9.607720703125,3.050780485793948,8.48613088004589,12.563659720909595
1682096491188848600,9.6278486328125,4.34385922563672,8.6428447058022,17.873627247214316
1682096491208976600,9.6479765625,3.687234222769737,8.728681745302676,19.03585550135374
1682096491229105700,9.668105712890625,4.816677813160419,8.508933078962563,21.733858906543254
1682096491249233700,9.688233642578124,7.439432208359241,11.116728389960526,23.0254769261837
1682096491269362700,9.70836279296875,6.2920730220496655,10.875495037043095,18.864843101131914
1682096491289490700,9.72849072265625,0.49985520913973447,8.852351379591227,12.718431764948367
1682096491309619700,9.74861962890625,-3.120315794312954,6.673342037644982,7.321615391752124
1682096491329747700,9.768747802734374,-0.9221298966012894,7.966846309423446,6.518820753496885
1682096491349876700,9.788876708984375,3.919984994024038,12.664821755313872,4.604800903108716
1682096491370004700,9.809004638671874,3.244029852265119,16.99904221498966,-0.23996669398248194
1682096491390132700,9.8291328125,-5.122864407503605,12.431021182745694,-13.662203146123884
1682096491410261800,9.84926171875,-4.963526078462601,9.394452762177586,-29.247406152427196
1682096491430389800,9.8693896484375,1.9936533590734005,5.793000633850693,-24.14785715405941
1682096491450518800,9.889518798828124,1.0789501053415238,5.83633124153316,-13.145875087219476
1682096491470646800,9.909646728515625,-7.990374484527111,3.433638816407323,-7.453796833798289
1682096491490775800,9.92977587890625,-11.701837139624356,-1.3022884667366743,-9.243115953284502
1682096491510903800,9.94990380859375,-7.069489473420381,-7.408129307600856,-6.893406930327415
1682096491531031800,9.97003173828125,-2.354549887116998,-12.531501664626598,0.5531330642104149
1682096491551160800,9.990160888671875,-4.985538003784418,-16.010865874898432,2.3926380641013383
1682096491571288800,10.010288818359374,-7.761116816085576,-17.601914584881065,2.517241179847717
1682096491591417900,10.03041796875,-5.851354038619995,-19.25094903536439,-0.2025327431231737
1682096491611545900,10.0505458984375,-2.9138170701682564,-20.808965244317054,2.302874206545949
1682096491631675000,10.0706748046875,-5.541449885058403,-20.0545555745244,5.69233368948698
1682096491651803000,10.090802978515624,-13.610052103126048,-17.51888208140731,3.4497961704820392
1682096491671931600,10.110931640625,-18.084881641453503,-15.392368065851926,-0.9711649995356798
1682096491692059600,10.1310595703125,-12.329801865196227,-13.472406550455092,-3.686547994071245
1682096491712187600,10.151187744140625,-7.1852470194101326,-8.442724284517764,-8.009410608908533
1682096491732316700,10.171316650390626,-10.048497100901603,-1.1104799467235802,-13.219521338188647
1682096491752444700,10.191444580078125,-12.703781308305263,3.3300831648647784,-22.93414421187639
1682096491772573700,10.21157373046875,-5.636721107858419,11.539404351699352,-26.882685438299177
1682096491792701700,10.23170166015625,-0.7545137146890163,14.844713140791654,-25.944499748301503
1682096491812830700,10.251830810546876,0.12035524904355406,16.612709486263988,-21.083861212861535
1682096491832959000,10.271958984375,-0.21432905244417488,15.405757124257088,-13.569737628394364
1682096491853088000,10.292087890625,-0.37897484024353323,14.755025271081923,-6.423644223242998
1682096491873216000,10.312216064453125,-0.2901239693472162,15.419051490116118,5.659163825812936
1682096491893344000,10.332343994140626,-0.890264247393608,16.922925774514674,15.57900941236019
1682096491913472800,10.35247265625,-0.7446434049945324,16.24948056975007,18.193365397047994
1682096491933601000,10.37260107421875,2.68281051223278,14.836611667400598,19.276119716978073
1682096491953729800,10.392729736328125,6.295632760357856,15.13672507930994,21.79007822189331
1682096491973857800,10.41285791015625,5.131989963245392,15.052715255236624,20.128810897302625
1682096491993986800,10.43298681640625,1.3890776923954486,15.08849267106056,15.82329046241045
1682096492014114800,10.45311474609375,-2.6852877160012723,13.971167388486862,12.83122344686985
1682096492034243800,10.473243896484375,-2.808748091453314,11.825858656090498,9.843938989430665
1682096492054371800,10.493371826171876,0.1785853196941316,10.489228943812847,8.971607289090752
1682096492074499800,10.513499755859375,3.160274879735708,11.161188293933868,5.944913196805119
1682096492094628900,10.53362890625,3.3707097742855545,17.27997044943571,0.9594768998295068
1682096492114756900,10.5537568359375,-3.48471696947664,15.295897404134273,-7.4006813296824685
1682096492134886000,10.573885986328126,-4.389787740857899,11.08371108649969,-26.026590002489087
1682096492155014000,10.594013916015625,-1.7495663702905178,3.8844560000032184,-32.8866885374546
1682096492175142700,10.614142578125,-2.2404043063685295,2.0145742742881176,-23.120092315423488
1682096492195270700,10.634270751953125,-7.504415844923257,-0.33244039501845835,-14.609604408234357
1682096492215399700,10.654399658203126,-12.303047129261493,-4.412247117686271,-12.788936795282362
1682096492235527700,10.674527587890625,-13.158414250797033,-7.8387904228746885,-9.828691151416301
1682096492255655700,10.69465576171875,-11.405117461806535,-11.063594181144238,-5.054992648282647
1682096492275784700,10.71478466796875,-7.397634217071532,-14.532825119936465,-1.7882587967783212
1682096492295912700,10.73491259765625,-3.1345629308521747,-16.755621581161023,1.6642355267465114
1682096492316042000,10.7550419921875,-0.7041724245268851,-16.661317157566547,1.9738748918920754
1682096492336169700,10.775169677734375,0.6648867083210498,-16.82005693619251,0.5768401030123234
1682096492356299000,10.795299072265625,0.8022831816017627,-17.77358048057556,0.8993892186135053
1682096492376427000,10.815427001953125,-2.1128093153297898,-16.19455304777622,1.8031436466991901
1682096492396555800,10.8355556640625,-5.543941117352247,-13.263327746689319,2.0965619448840616
1682096492416684000,10.85568408203125,-7.3957836207687855,-11.027342133545876,-0.20340251169502735
1682096492436812000,10.87581201171875,-7.853625003913044,-7.445477918264269,-5.512732324618101
1682096492456940800,10.89594091796875,-8.006912946873904,-4.331792355746031,-12.073797644126415
1682096492477068800,10.91606884765625,-8.888865877518057,-0.3158244835212827,-19.6803984367609
1682096492497197800,10.93619775390625,-6.408772232803702,7.925969524633884,-23.223190286326407
1682096492517325800,10.956325927734374,-4.932797178199887,13.311595226252079,-28.19946829433441
1682096492537454800,10.976454833984375,-3.337636941245198,14.487622873163222,-19.8037933457613
1682096492557582800,10.996582763671874,-3.2515748608171937,15.292327144432067,-7.999357416927814
1682096492577711900,11.0167119140625,-3.755499365222454,13.759853373014925,-2.2437352043569088
1682096492597840000,11.03683984375,-4.498502674859762,12.547524578666687,1.101412843170762
1682096492617967900,11.0569677734375,-1.6288777976393698,10.885864455366134,6.769162126499414
1682096492638097000,11.077096923828124,2.9214029952526093,11.104204423952101,17.074078459012508
1682096492658225000,11.097224853515625,1.9621382768690585,12.034420742505787,19.675268672657012
1682096492678353700,11.117353759765624,-1.5084125123500822,13.3695564168334,18.2967930382967
1682096492698482000,11.13748193359375,-1.010716819331795,14.312346970278023,20.602455998778343
1682096492718610700,11.157610595703124,1.4770597811006008,14.341825578218698,22.81026999492645
1682096492738738700,11.17773876953125,1.1812873210050165,13.368821088296174,18.485392533135414
1682096492758867700,11.19786767578125,-0.7113596326172351,11.696563583135605,10.392791015321016
1682096492778995700,11.21799560546875,-3.246566677266359,8.791784974947571,2.448985389745235
1682096492799124700,11.238124755859374,-0.04420037625432014,7.520615284574031,1.3127005551576614
1682096492819252700,11.258252685546875,7.316836925303935,13.11421855071783,3.4444022024840115
1682096492839381800,11.2783818359375,5.776228947269916,16.219710869908333,-0.4235305327415466
1682096492859509500,11.298509521484375,-4.043020714323222,13.204529520761966,-21.982383585512636
1682096492879637500,11.318637451171876,-5.166213719886541,7.937871559351682,-32.50165929254293
1682096492899766800,11.338766845703125,-2.1494708205118775,4.268768036556244,-22.820644089424608
1682096492919894800,11.358894775390626,-4.482911137974262,1.6158052578374742,-12.879576266628503
1682096492940023600,11.3790234375,-7.296653384453058,-1.0973790576100348,-10.019023169136046
1682096492960151600,11.399151611328126,-8.782657665640116,-4.9909471693515775,-7.232786769220232
1682096492980280600,11.419280517578125,-9.397768754857777,-9.201991331213712,-3.682314302024245
1682096493000408600,11.43940869140625,-7.906604314428567,-13.330352533692121,0.44240357551574705
1682096493020537600,11.45953759765625,-3.453578611630201,-16.702537641227245,2.0827040999233724
1682096493040665600,11.47966552734375,-1.8134687874890862,-17.66990734013319,3.324621392327547
1682096493060793600,11.499793701171875,-3.852641058069467,-17.095938408643008,3.943258902105689
1682096493080922600,11.519922607421876,-5.934854159605503,-15.84089392364025,4.876516488051414
1682096493101050600,11.540050537109375,-7.4108140166401855,-14.622676655775308,5.068811330276727
1682096493121179600,11.5601796875,-7.546538830381631,-13.632323556166886,3.3074937319159505
1682096493141307600,11.5803076171875,-7.480164031720161,-11.826465389811991,2.01541861615777
1682096493161436700,11.600436767578126,-8.109913887143135,-9.058562518966198,-1.3371686414599417
1682096493181564700,11.620564697265625,-6.0502750209867955,-5.547569829243421,-7.627479914534091
1682096493201693400,11.640693359375,-5.014263747531175,-2.2220348292022942,-15.98765217257142
1682096493221821400,11.660821533203125,-7.112380520641803,0.6840531080186366,-27.3034967752099
1682096493241950500,11.680950439453126,-6.092044955223798,11.389371611142158,-31.245989369118213
1682096493262078500,11.701078369140625,-3.4075364069014786,13.895801474118231,-25.0218506501317
1682096493282206500,11.72120654296875,-3.6983915766000743,15.194975023704766,-14.5577152310431
1682096493302335500,11.74133544921875,-4.230507571744918,14.914106410491465,-6.277053732094168
1682096493322463500,11.76146337890625,-3.374387586015463,13.758560410594939,0.02765723773241043
1682096493342592500,11.781592529296875,-0.675108900193125,12.541556610172986,8.054762493285537
1682096493362720500,11.801720458984375,1.3474141411423681,12.18980770357251,16.357101571035383
1682096493382849800,11.821849853515625,2.0574936708211897,12.501053919392824,20.46506529765129
1682096493402977800,11.841977783203125,1.778326016306877,11.666126359295845,20.237733044314382
1682096493423106600,11.8621064453125,3.083037326276302,11.434328358721732,20.62234143346548
1682096493443234600,11.882234619140625,3.5824013908982275,14.163119700884819,21.42824981982708
1682096493463362800,11.90236279296875,0.05874576508775353,15.703051971614359,19.93597946398258
1682096493483491600,11.92249169921875,-2.950064149330556,14.439859251469374,13.809508507543802
1682096493503619600,11.94261962890625,-2.3512558140076694,12.297706937277317,8.164601170620323
1682096493523748600,11.96274853515625,0.528830835994333,9.89757004185319,1.4715052157133817
1682096493543876600,11.982876708984374,4.828887598653138,12.281146263098716,-1.7829975152492523
1682096493564005600,12.003005615234375,4.401762840811908,16.02313966553807,-3.055392363503575
1682096493584133600,12.023133544921874,-2.939723664841056,12.008686581790446,-21.991029833304882
1682096493604262700,12.0432626953125,-4.909117611926794,6.873751797264814,-35.26900569854975
1682096493624390700,12.063390625,-1.9367630125939845,1.8782666922226547,-27.56488327383995
1682096493644519700,12.083519775390625,-2.738772637951374,-0.27301556162536145,-14.519860424423216
1682096493664647700,12.103647705078124,-4.75393757160902,-3.233759802663326,-10.83777467045784
1682096493684775700,12.123775634765625,-4.997350606653094,-7.8747735904037945,-7.305338210690021
1682096493704904400,12.143904541015624,-5.436528205859661,-12.880624898898601,-3.340087841528654
1682096493725032400,12.164032470703125,-4.985554370397329,-17.449712099069355,-1.945636054879427
1682096493745161500,12.184161376953124,-3.065903820645809,-20.157964511072635,0.9005477409988641
1682096493765289500,12.20428955078125,-2.812524102860689,-20.006037919592856,3.654259589406848
1682096493785418500,12.22441845703125,-3.390249172013998,-19.370341138464212,4.519983269783854
1682096493805546500,12.24454638671875,-4.059999029392004,-18.74976243149042,4.665674181744456
1682096493825675500,12.264675537109374,-4.689475328570604,-16.981452782285213,2.1702859372645613
1682096493845803000,12.284802978515625,-4.978344877409935,-12.815843506908417,2.278781967818737
1682096493865932000,12.30493212890625,-6.2191083236038684,-9.074722211128472,1.6909499306708573
1682096493886060000,12.32506005859375,-5.458513243174552,-7.528760012584924,-2.63637258618474
1682096493906188000,12.34518798828125,-3.0632138509094715,-5.470293697339296,-8.53974907298684
1682096493926317000,12.365317138671875,-2.743342430084944,0.1375135968543589,-12.301798590505122
1682096493946445000,12.385445068359376,-7.214648470461368,5.587456433951854,-18.95670071609616
1682096493966574000,12.405573974609375,-6.133901398700475,8.212341995960474,-19.578495228600502
1682096493986702000,12.4257021484375,-1.2252080035351216,13.926249219352005,-17.229375403708218
1682096494006830800,12.445830810546875,-2.528268769818544,15.756002640557288,-11.052054549998044
1682096494026958800,12.465958740234376,-3.252975375264883,17.412508449834583,-7.879643826788663
1682096494047087900,12.486087890625,-3.7477415907025335,13.441985693228244,-1.589322616842389
1682096494067216000,12.5062158203125,-4.5480116789162155,10.67320837763548,1.599682682815194
1682096494087345000,12.526344970703125,-2.890081974315643,8.609307177859545,6.502721851611137
1682096494107473000,12.546472900390626,-1.7986511575855313,7.172647065556049,10.827819093632698
1682096494127602200,12.566602294921875,-0.28702494388595223,7.099139346274733,13.808929830873012
1682096494147730200,12.586730224609376,0.031903497000038625,9.5903804079473,16.886570851063727
1682096494167859200,12.606859130859375,0.4468411195717752,10.759882452481984,17.517639387869835
1682096494187987200,12.6269873046875,1.6507529448390006,10.818435179215669,15.31789062475562
1682096494208115200,12.647115234375,2.126411285833269,10.51268113107085,11.536564744359254
1682096494228244000,12.667243896484376,0.11943886485099792,9.639620531934499,6.93172234019637
1682096494248372000,12.6873720703125,-1.5085036977648734,9.207010036158561,3.111989864516258
1682096494268501000,12.7075009765625,2.0290952593326566,11.538714615869521,1.296692254164815
1682096494288629000,12.72762890625,6.802132668209076,15.643295129787921,1.7852017472952604
1682096494308758000,12.747758056640626,2.1162835673116147,13.128531153708696,-6.008155542659759
1682096494328886000,12.767885986328125,-3.0526950872436163,12.459315549337862,-19.16506640315652
1682096494349015000,12.78801513671875,-5.927457619613409,11.44889815134406,-14.783747507697344
1682096494369143000,12.80814306640625,-6.901629984271526,8.733484177148341,-8.53829653609097
1682096494389272000,12.82827197265625,-11.872834342277049,2.17790781044513,-7.571517204293608
1682096494409400000,12.848400146484375,-16.5913136470139,-3.618556992384791,-8.514843179789185
1682096494429528800,12.86852880859375,-12.995036875498293,-7.737119854426384,-10.463033010804653
1682096494449657000,12.888656982421875,-5.294352608543634,-12.275621362197398,-5.157751596489549
1682096494469785900,12.908785888671876,-3.323390389227867,-15.744422092878818,0.3122568541675806
1682096494489913900,12.928913818359375,-7.651398550260066,-15.849574073702096,1.81714996021986
1682096494510041900,12.949041748046875,-11.193070455884932,-17.117784329748154,-3.889135682252049
1682096494530171000,12.9691708984375,-5.108272403049469,-19.901506701016427,-7.0422910853713745
1682096494550299000,12.989298828125,2.347500845388323,-20.708570102632045,-3.3409728076696394
1682096494570428000,13.009427978515625,-0.46562663019299505,-19.00163057566881,-2.896772411864996
1682096494590556000,13.029555908203125,-9.00471402440071,-16.146449234342573,-6.946217898538708
1682096494610685200,13.049685302734375,-10.677487077867983,-14.168274014908075,-10.114235939747095
1682096494630813200,13.069813232421875,-4.467872558796405,-8.925950868809222,-7.912266577973961
1682096494650942200,13.089942138671875,-2.416853052425384,-1.9561720619410274,-9.047882134997844
1682096494671070200,13.1100703125,-6.365091496509313,2.0696412047326564,-19.114995089042186
1682096494691199000,13.130198974609375,-4.984119953680038,7.370464470595121,-25.89640996339321
1682096494711327000,13.150326904296875,-2.3814193354725837,14.354441898685693,-26.112608243775366
1682096494731456000,13.1704560546875,-3.335309959602356,18.711021489685773,-18.57570350317955
1682096494751584000,13.190583984375,-6.262406198060512,18.302840501767395,-9.908547362941503
1682096494771712000,13.2107119140625,-5.055232886779308,15.391284362268447,-1.1944652208775282
1682096494791841000,13.230841064453125,-3.4444390273630616,13.056530916380881,4.276680124855042
1682096494811969000,13.250968994140624,-2.216518696129322,11.550431941670178,8.828521591192484
1682096494832098000,13.27109814453125,-1.0956079562842844,9.896236162900925,12.911927215135096
1682096494852226000,13.29122607421875,-0.10322671184912323,9.012201165285706,15.950580625283717
1682096494872355000,13.31135498046875,1.4850198001943529,8.888276679453254,19.245392570281027
1682096494892483000,13.331483154296874,2.3899206218361853,9.658677114582062,20.994394292426108
1682096494912611800,13.35161181640625,2.0396414955273268,10.851356621086596,20.13615249223709
1682096494932740000,13.371739990234374,0.4165934269547462,11.132641413885354,16.790937224692104
1682096494952868900,13.391868896484375,-1.2702721570119262,10.413529851967096,13.042162199288606
1682096494972996900,13.411996826171874,-2.104124927484244,9.271981982284784,8.733635568317771
1682096494993126000,13.4321259765625,-0.3567304944053292,8.769280297672749,5.639989754265547
1682096495013254000,13.45225390625,3.9653842246741053,11.351208176964521,1.022991048362851
1682096495033383000,13.4723828125,4.2208699748277665,15.605979252350329,-0.8922118743300438
1682096495053511000,13.492510986328124,-0.6107435416579247,13.36015730484724,-11.587409965455532
1682096495073640000,13.512639892578125,0.02933335425108671,12.158152336114645,-20.758090797126293
1682096495093768000,13.532767822265624,-0.8583198338612914,11.368810469150542,-15.621561436885594
1682096495113896000,13.55289599609375,-7.406909994938969,9.26917452364862,-7.891015115630626
1682096495134025000,13.57302490234375,-12.993761448734999,2.610090143936872,-8.218284830012918
1682096495154153000,13.593153076171875,-12.929872037148474,-3.7539369382113215,-11.797779393553734
1682096495174282000,13.613281982421874,-7.600401353472471,-9.287218129861355,-12.907227659142016
1682096495194409700,13.63340966796875,-2.984472030366957,-14.160527930825948,-6.1081204762339585
1682096495214539000,13.6535390625,-3.0927775067850947,-17.76969925522804,-0.9393424588173628
1682096495234667000,13.6736669921875,-5.691795929348468,-19.19701286251545,-0.6542313857287169
1682096495254796000,13.693796142578124,-5.846365728813409,-19.475652109241484,-0.9121773885160684
1682096495274924000,13.713924072265625,-5.559913762509822,-17.707419616925716,0.6449532697737217
1682096495295053000,13.734052978515624,-6.973493443477153,-16.263942810344695,1.4266373154610394
1682096495315181000,13.75418115234375,-8.648895676404237,-14.107199660742282,0.469625344440341
1682096495335310000,13.77431005859375,-9.14763196451664,-11.897073295998572,0.47520752848684783
1682096495355438000,13.79443798828125,-6.630052931016683,-9.619622284522652,-1.1157710388690232
1682096495375566000,13.814566162109376,-3.77563029910326,-6.200020176774263,-5.607293937844037
1682096495395694800,13.83469482421875,-3.65128963368535,0.3482210247352719,-12.739252434659003
1682096495415823000,13.854822998046876,-7.017567563003301,6.873998465502262,-16.79014695109725
1682096495435951900,13.874951904296875,-5.400189649021625,11.424891837334632,-21.11868936513662
1682096495456080000,13.895079833984376,2.5047721588969227,19.03660135128498,-25.930571760714052
1682096495476209000,13.915208984375,3.6876118239104745,14.44160112670064,-17.741850294315814
1682096495496337000,13.9353369140625,1.184081189507246,11.573781253075598,-9.868303030836582
1682096495516466000,13.9554658203125,-1.6951742703676222,10.856616149049996,-2.7618355336308476
1682096495536594000,13.975593994140626,-1.6371055277585982,11.451569416379927,4.791079846045375
1682096495556723000,13.995722900390625,-1.143123740696907,10.507190132439137,10.700126779699325
1682096495576851000,14.015850830078126,-2.0253497891940175,7.793292408025264,12.95431206640005
1682096495596980000,14.03597998046875,-1.9446086115278303,7.331949154239893,15.166963565707206
1682096495617108000,14.05610791015625,-1.8537667494773864,9.04434694660902,18.459770600622893
1682096495637237000,14.076237060546875,0.3619929449781775,11.069080503600835,21.435603105199334
1682096495657364700,14.09636474609375,2.474631872177124,11.475893710297346,22.104770778775215
1682096495677494000,14.116493896484375,2.7682778416380285,10.316293466573953,18.08084025710821
1682096495697622000,14.1366220703125,1.0438204859018325,8.912039247834683,13.02307755959034
1682096495717751000,14.1567509765625,-0.9216273539066314,9.04460530528426,9.957672920638322
1682096495737879000,14.176879150390626,0.012443009726703166,10.959972478628158,6.947848130089044
1682096495758007000,14.197007080078125,6.6247782054841515,14.119399801623821,3.853351836687326
1682096495778136000,14.217135986328126,5.039713830608129,11.65923250812888,-5.7482683426767585
1682096495798264000,14.23726416015625,-3.6779812412559982,13.168594284027813,-21.7790892103672
1682096495818393000,14.25739306640625,-8.796134402328729,9.979864878702163,-26.91136442029476
1682096495838521000,14.27752099609375,-5.10256396227479,5.6747460103482,-18.24717648221254
1682096495858649900,14.29764990234375,-4.090252421097457,0.9068062168717383,-13.760545446932316
1682096495878777900,14.31777783203125,-4.420625654453039,-3.3188638517141342,-11.541873372161387
1682096495898907100,14.3379072265625,-3.441061659884453,-8.093205328926443,-7.812624300482868
1682096495919035100,14.35803515625,-1.9267457687094807,-11.717791080081462,-3.3894109676241873
1682096495939164200,14.3781640625,-2.50737941878587,-13.972184456574915,-0.32458558986485003
1682096495959292200,14.398292236328125,-4.434977128149569,-15.095813223206996,0.8574526956379414
1682096495979421200,14.418421142578126,-5.18563036801815,-15.211624545210599,0.9521925880402327
1682096495999549200,14.438549072265625,-1.8006665890611706,-15.797190390992164,0.5929466036826372
1682096496019678200,14.45867822265625,1.1411726066291332,-16.15656146303415,2.7540590544104573
1682096496039806200,14.47880615234375,-0.987183968053013,-14.479844055855274,3.213732329156995
1682096496059935000,14.49893505859375,-5.87333206167221,-13.31368080035448,-0.0676689301252365
1682096496080063200,14.519063232421875,-8.774828579449654,-13.029388057911396,-4.658914186090231
1682096496100191200,14.539191162109375,-6.558086595958471,-11.35398699402809,-6.797939308172464
1682096496120320000,14.559320068359375,-4.740407058906555,-5.615971749818325,-7.463202375525236
1682096496140448000,14.579447998046875,-8.219869468855858,1.7536311355113983,-15.210667098355293
1682096496160577000,14.599576904296875,-10.585113914597034,5.661541076338291,-27.555867608213422
1682096496180705000,14.619705078125,-1.6064495466016233,10.138832620865106,-29.031495456814763
1682096496200834000,14.639833984375,3.0326082847654816,15.315798036390541,-22.6901484085083
1682096496220962000,14.659962158203125,-2.4044752168893813,15.940440339541434,-12.565705547523498
1682096496241091000,14.680091064453125,-7.365116095304488,13.61168876441717,-6.655034227538108
1682096496261219000,14.700218994140625,-7.310242349344492,11.906041030830144,-1.5370283659815787
1682096496281348000,14.72034814453125,-4.451609990781545,10.659108540612458,3.798306241291761
1682096496301476000,14.74047607421875,-3.0551252369999884,10.296111094766855,8.70025352319777
1682096496321605000,14.760605224609375,-1.2498492544472217,10.210240152996779,12.622350394809246
1682096496341732900,14.78073291015625,0.94348788805902,10.62040968438387,16.943308052808046
1682096496361862100,14.800862060546875,2.4056609195426106,13.080154953074455,21.85738241035938
1682096496381990100,14.820990234375,2.959059356690943,16.27326242735386,27.504186520814894
1682096496402119200,14.841119140625,0.6021010932579636,15.544846445995569,25.039949785923955
1682096496422247200,14.8612470703125,-1.678237164092064,12.740996647977829,17.363669307863713
1682096496442376200,14.881376220703125,-2.1904830682493746,11.51083525981903,11.56816516675949
1682096496462504200,14.901504150390625,-0.6771732853770256,11.717690542316436,9.779130709433556
1682096496482633200,14.92163330078125,4.082487924575806,13.604469919079541,6.493339106237888
1682096496502761200,14.94176123046875,9.044412997582555,15.263400325155258,-1.0502022958934307
1682096496522889200,14.96188916015625,2.211265013384819,13.498496100479363,-14.733110376393794
1682096496543018000,14.98201806640625,-6.065743808275461,14.18833246807456,-28.58591675839424
1682096496563146200,15.002146240234374,-6.9859764929533,7.658327472740411,-31.762753481352327
1682096496583275000,15.02227490234375,-5.110670111840963,2.1568545010223983,-19.08904465522766
1682096496603403000,15.042403076171874,-5.244088402205706,-0.740851392300427,-10.611874495750666
1682096496623532000,15.062531982421875,-6.3630971078217025,-4.100937773501872,-6.862212750640511
1682096496643660000,15.082659912109374,-7.123114680624008,-7.971284584131836,-5.172480379065871
1682096496663789000,15.1027890625,-6.709734955018758,-12.088399000930785,-3.1837872727483507
1682096496683917000,15.1229169921875,-4.449146815538406,-16.149993775081633,0.11867957091629504
1682096496704046000,15.143046142578125,-2.4421337702848014,-17.115892816913128,3.337861397650838
1682096496724174000,15.163174072265624,-3.373154244828224,-16.333821233212948,5.366324204298854
1682096496744303000,15.18330322265625,-4.553440718227624,-14.630849440836906,6.5550289619535205
1682096496764431000,15.20343115234375,-3.7955578193664548,-14.188455217671393,6.30896102848649
1682096496784560000,15.22356005859375,-1.9377767196811735,-14.220337379622459,4.015709221288562
1682096496804688000,15.24368798828125,-0.960708341320604,-12.989416113007067,2.4375924735933543
1682096496824817200,15.263817138671875,-5.453890844070911,-11.722294236719607,-2.32010474281013
1682096496844945000,15.28394482421875,-6.863301714920997,-9.984058238738776,-8.225141271778941
1682096496865072600,15.30407275390625,-3.3255122036874294,-4.4440211430877445,-11.877106028246878
1682096496885202000,15.324201904296874,-6.2669865115880965,0.06731003368496895,-20.675128436279294
1682096496905330000,15.344329833984375,-9.001817133915424,4.828962709715962,-30.28786213033199
1682096496925459000,15.364458984375,-3.9604678110599516,14.424426704537868,-31.092926467084883
1682096496945587000,15.3845869140625,-0.740653531640768,14.500727853929996,-22.288841398012636
1682096496965716000,15.404716064453124,-2.4757144067168233,14.334386952650545,-12.302116570413112
1682096496985844000,15.424843994140625,-4.30657841951251,14.089723625284433,-4.731318328043818
1682096497005972700,15.44497265625,-3.9727719968378543,12.88834877114892,1.6207207946687936
1682096497026101000,15.46510107421875,-1.841538551545143,11.188582496815918,7.437672797471285
1682096497046229800,15.485229736328124,0.4290284725707024,10.045422515761851,12.422998035287856
1682096497066357800,15.505357666015625,-0.7610707351170479,11.02345389393568,14.160437914454937
1682096497086486800,15.52548681640625,-2.2895476919829845,11.971768179237841,16.78337468048334
1682096497106614800,15.54561474609375,1.2143955906849353,12.646371906387806,22.643716327679154
1682096497126743800,15.565743896484374,3.944269540452957,13.94880825716257,27.690015381896494
1682096497146871800,15.585871826171875,2.4467875874400136,12.968353451234101,24.881764134049416
1682096497167000800,15.606000732421874,-0.5297230355937034,11.79237841129303,18.296821095347404
1682096497187128800,15.62612890625,-1.6441808729723095,9.748684133243561,11.630246067619323
1682096497207257900,15.6462578125,1.3693661529704928,8.089639160877466,7.134297168895602
1682096497227385900,15.6663857421875,6.5553790905654425,8.677242649966479,3.2471722419440745
1682096497247514600,15.6865146484375,8.504791156852244,15.253765066325663,-1.4493980133235453
1682096497267642600,15.706642578125,-0.8187095618762076,11.28052428293228,-17.967473405647276
1682096497287772000,15.72677197265625,-5.238079517179727,8.342212238454819,-36.25420331509113
1682096497307900000,15.74689990234375,-2.130042335812002,5.468003540575504,-29.719063879477975
1682096497328029000,15.76702880859375,-2.680948225492239,4.061177133260667,-13.709275862944125
1682096497348157000,15.787156982421875,-6.6301674973070615,0.7070856085598468,-8.201309145292639
1682096497368285000,15.807284912109376,-8.432861062151193,-3.9651971776694057,-5.081508314764499
1682096497388414000,15.8274140625,-6.387068350517749,-8.240158223646878,-3.1264842538148163
1682096497408542000,15.8475419921875,-4.231148207736015,-13.09446638702154,-0.8108388285011052
1682096497428671000,15.8676708984375,-1.887698391304165,-16.392792477619647,2.5830074912220238
1682096497448799000,15.887799072265626,-2.6367747372448442,-17.164562447535992,2.9638983211547134
1682096497468927700,15.907927734375,-4.790798691016436,-16.255591161584853,2.9213316835820673
1682096497489055700,15.9280556640625,-5.486923345100879,-14.837911644083261,3.5940064884960647
1682096497509184800,15.948184814453125,-5.163482833617925,-12.998842113000153,4.156956013321876
1682096497529312800,15.968312744140626,-5.357060116869211,-11.437245122951268,3.992371600320935
1682096497549441800,15.98844189453125,-6.101209089410305,-10.093872366154192,3.4070319645106792
1682096497569569800,16.00856982421875,-6.6457566961050025,-8.703506387513876,0.32562136265337466
1682096497589698800,16.02869873046875,-4.03622652413845,-6.798709708023071,-4.6320004602015015
1682096497609826800,16.048826904296874,-0.8787327995538711,-2.1376088255435226,-11.216729563891887
1682096497629955800,16.068955810546875,-4.049071977186203,2.4823425926849243,-20.266416702485085
1682096497650083800,16.089083740234376,-5.970792903470993,6.749338651132583,-27.279024012732503
1682096497670212900,16.109212890625,-0.60446000440903,13.055408634352684,-28.892143100225923
1682096497690340900,16.1293408203125,1.4683143107175827,12.99804950131774,-18.86481036790609
1682096497710469600,16.1494697265625,-2.8641338785886763,11.926759993731975,-9.10188143621087
1682096497730597600,16.16959765625,-6.079391225355863,11.442116528379916,-2.508522451341152
1682096497750725600,16.1897255859375,-4.1173137387633325,10.56011157528758,6.019938334912061
1682096497770855000,16.20985498046875,-2.1282336789548397,9.674240009894966,13.896097242194413
1682096497790982700,16.229982666015626,-1.802448065650463,7.900316027939319,15.942036084300279
1682096497811112000,16.25011181640625,-2.4144812087275085,6.048641866827011,15.411355674916505
1682096497831240000,16.270239990234376,-2.799955713188648,6.216468038228154,16.24360612475872
1682096497851369700,16.29036962890625,-1.0426756997808813,8.571540049523115,18.276492593067882
1682096497871497700,16.310497802734375,0.42753202346786856,10.98882097197175,23.00520336896181
1682096497891626500,16.33062646484375,-1.2124464293785393,12.156008309823275,21.665432436048984
1682096497911754500,16.35075439453125,-4.356908092302084,12.027521046119928,11.962137596583366
1682096497931883500,16.370883544921874,-3.024721038646996,10.164929185152053,4.862106269904971
1682096497952011500,16.391011474609375,5.093844064724445,9.722836575281619,2.2692858251988888
1682096497972140500,16.411140625,12.065118663108349,13.431840731310844,1.8031337098270654
1682096497992268500,16.4312685546875,2.8083956247538326,13.02493750824332,-9.43469008001983
1682096498012397600,16.4513974609375,-5.9836290041685105,12.855806099462509,-31.09690355402231
1682096498032525600,16.471525634765626,-4.87936807809025,6.959249229547381,-30.814107187616823
1682096498052654600,16.491654541015624,-1.650315722465515,2.7663585640132426,-17.436076372426747
1682096498072782600,16.511782470703125,-1.6710384847596287,-0.6703381786599755,-9.954223072445393
1682096498092911400,16.531911376953126,-2.1792482652686536,-3.271112504979968,-6.808641319450736
1682096498113039600,16.55203955078125,-3.652479720252752,-7.244389528730511,-3.296585968932509
1682096498133168600,16.572168701171876,-5.293458290052413,-11.19240410093069,-0.6781681416332721
1682096498153296400,16.59229638671875,-5.064000715124607,-13.922909261274336,-0.5494441465646028
1682096498173425700,16.61242578125,-0.8161141385555267,-16.892834587633608,0.308580211481452
1682096498193553700,16.6325537109375,2.967143002164364,-15.808952140456437,1.570325655427575
1682096498213682700,16.6526826171875,2.279076566851139,-14.14851366790533,5.914562482205033
1682096498233810700,16.672810791015625,1.509025091290474,-12.662511724805832,6.628285921344161
1682096498253938700,16.692938720703125,1.3693606000125407,-12.765409789222478,5.381095072451234
1682096498274067700,16.713067626953126,0.43488662401437755,-10.674313124006986,6.3320864680081606
1682096498294195700,16.73319580078125,-3.5915094109833237,-8.59060949165225,5.103799057027698
1682096498314324700,16.75332470703125,-6.115642103910446,-7.694748447164892,-0.48130642988383765
1682096498334452700,16.77345263671875,-3.6332992189645763,-7.646260602849721,-10.221106414926052
1682096498354581500,16.79358154296875,-1.6824655954420566,-4.333557904113829,-18.58200698723793
1682096498374709500,16.81370947265625,-5.636825152754783,1.2534861496448517,-24.221214651215075
1682096498394838500,16.833838623046876,-4.240133478224277,10.37385250609517,-26.155313413035866
1682096498414966500,16.853966552734374,-1.0708195519864558,11.543407157599926,-17.812351817518472
1682096498435095600,16.874095458984375,-4.29296256661415,9.616245501565933,-10.437789848476648
1682096498455223600,16.8942236328125,-6.68643825058341,9.11066621569097,-5.1078959709525105
1682096498475352600,16.9143525390625,-5.802345385301113,8.210562711328267,0.1814671587407589
1682096498495480600,16.93448046875,-3.5786464222788807,7.08553050763905,5.095655498060584
1682096498515609600,16.954609619140626,-1.631592171164602,6.232149591484665,10.02392146257162
1682096498535737600,16.974737548828124,-0.13486439751982687,6.302066008275747,13.10332423173785
1682096498555866400,16.994866455078125,-1.9031436515867708,7.976448250505328,14.368747487413883
1682096498575994400,17.014994384765625,-3.6111692202210426,10.109682514226437,19.396484464502333
1682096498596123600,17.03512353515625,-0.38715588167682286,12.649154230582713,24.144883106684684
1682096498616251400,17.05525146484375,1.4643781403124332,13.828175798612833,23.402049308395384
1682096498636380700,17.075380615234376,0.2172038041628897,10.912911452245712,13.414026842200755
1682096498656508700,17.0955087890625,-0.9288988062143325,9.029657326999306,6.793989109241962
1682096498676637700,17.1156376953125,1.4036474850177765,11.706619697725772,9.24498408524394
1682096498696765700,17.135765625,6.5206947306752205,17.14729099473953,7.745937951654195
1682096498716894700,17.155894775390625,4.436859288634359,16.099659426116943,-6.290709332481026
1682096498737022700,17.176022705078125,1.2279448811531066,12.38766719418764,-24.15886019411087
1682096498757151500,17.1961513671875,-1.5099240859568117,13.29076169705987,-28.600981056535243
1682096498777279500,17.216279541015624,-3.722320441459119,9.151723617744445,-20.450038408911226
1682096498797408500,17.236408447265624,-4.71156441078186,2.9048768078655,-11.986107670235633
1682096498817536500,17.25653662109375,-7.194671850359439,-1.5515788693815469,-9.410328961223364
1682096498837664800,17.276664794921874,-9.1119340436697,-6.481426550126075,-9.516818912652134
1682096498857792800,17.296792724609375,-7.389945416134595,-12.22448037302494,-7.705784804964065
1682096498877920800,17.316920654296876,-3.02431275010705,-15.552442892473936,-1.7022464007109404
1682096498898050000,17.337050048828125,-2.905382419300079,-17.468406278145313,0.31844460289180276
1682096498918177800,17.357177734375,-5.2927323138654225,-18.299356751304863,0.20396423723101614
1682096498938307000,17.37730712890625,-4.473156636679172,-17.90737754112482,2.0180325980484484
1682096498958435000,17.39743505859375,-2.855336824148893,-16.354429136955737,3.3077713798135515
1682096498978564000,17.417564208984373,-2.9770459720194338,-14.492047703868149,3.959038655039668
1682096498998692000,17.437692138671874,-4.240938949388266,-12.717674224579333,2.696684723806381
1682096499018821000,17.457821044921875,-4.464212282723188,-11.206268960154055,0.9869944368302822
1682096499038949000,17.47794921875,-1.6660089661598205,-10.385148976135254,-0.9032955784022808
1682096499059078000,17.498077880859373,-0.7206301497876644,-6.148818981847167,-3.8363989483207463
1682096499079206000,17.518205810546874,-3.2018098361730574,1.991597011065483,-8.495261111962794
1682096499099335000,17.5383349609375,-5.928123974567652,7.6411115495234725,-18.41540188206434
1682096499119463000,17.558462890625,-1.9045593636035918,8.446801909220218,-22.550964394223687
1682096499139592000,17.578592041015625,0.12504442977309227,13.795418022871017,-23.53965978975296
1682096499159720000,17.598719970703126,-3.5744916406869884,13.158266951280831,-15.669572895860671
1682096499179849000,17.618848876953123,-5.932647004950046,12.664684977191685,-6.285633344390988
1682096499199977000,17.63897705078125,-5.966537584114074,11.701840646755695,0.8440893561959266
1682096499220106000,17.65910595703125,-5.873790326833725,9.231737065657972,2.7487305528640746
1682096499240234000,17.67923388671875,-4.265956486266851,6.8225921033918855,7.156032030841708
1682096499260362800,17.69936279296875,-1.6517727894060312,5.3826668518126,11.824085216677188
1682096499280490800,17.71949072265625,-0.6707824152961372,4.797715923058987,13.510746510243415
1682096499300620000,17.7396201171875,-0.12313333545476197,5.646688959643244,15.025642539393901
1682096499320747800,17.759747802734374,0.4133993070885539,7.988889798927307,18.333594536471367
1682096499340877000,17.779876953125,-0.570438127015531,10.209113194793462,20.5638962587595
1682096499361005000,17.800005126953124,-0.6405202557623386,10.81985322932005,20.52265239422321
1682096499381134000,17.820134033203125,-0.7805670243561268,10.147466009175776,14.31800397312641
1682096499401262000,17.840261962890626,-0.6124409932255744,7.509398309510946,8.088110051614045
1682096499421391000,17.86039111328125,2.0611165374934672,8.792498676174878,3.115744833135605
1682096499441519000,17.88051904296875,5.150764806342124,15.517529400002955,1.5881284386217593
1682096499461648000,17.90064794921875,0.026704174791276455,13.387055833166837,-4.9827767223775385
1682096499481775900,17.92077587890625,-4.604056806743145,12.994721233677863,-23.041333836007116
1682096499501905000,17.94090478515625,-6.641370443844795,5.638502730578184,-28.72894692671299
1682096499522033000,17.961032958984376,-4.36636185708493,2.9301661474227902,-19.349872350931168
1682096499542161000,17.981160888671877,-3.1352979671284555,0.2950508678227663,-13.233406071156262
1682096499562290000,18.0012900390625,-1.2640969755083322,-2.521617495235801,-12.743912243163585
1682096499582418000,18.02141796875,-1.5976149366304278,-6.660075144314765,-9.534050617960094
1682096499602547000,18.041546875,-1.939154876166582,-10.2592464682281,-5.580728002479672
1682096499622675000,18.061675048828125,-1.9241211192943155,-12.669778500938415,-0.7534627443313598
1682096499642804000,18.081803955078126,-2.7496073356986046,-14.497812258744238,2.5126830781519414
1682096499662932000,18.101931884765627,-1.8465071337379515,-15.63511182333231,4.650792254433036
1682096499683061000,18.12206103515625,-1.4308464575886726,-15.798133809322119,5.109875162070989
1682096499703189000,18.14218896484375,-0.6089069738805294,-15.198191063141822,4.7484144242733715
1682096499723317800,18.16231787109375,-0.12519625933393835,-14.1203701079607,5.761362217527628
1682096499743445800,18.18244580078125,-2.462201429671049,-12.342708108520506,4.126663750910759
1682096499763575000,18.202574951171876,-5.999153905558586,-11.721447849023342,-0.9249164585798978
1682096499783702800,18.222702880859377,-6.723620857030153,-11.09346558779478,-7.985801769784093
1682096499803832000,18.24283203125,-3.9692520060181615,-4.8658904646188015,-10.858253979384898
1682096499823960000,18.2629599609375,-5.0863037323474884,2.032194394391775,-13.392486041522025
1682096499844089300,18.28308935546875,-8.658382466673851,4.985112471848726,-21.84350819878578
1682096499864217300,18.30321728515625,-7.043595153707265,12.689175275325775,-26.924593319702147
1682096499884346400,18.323346435546874,-3.8770436779201027,15.393062477856873,-20.730849738979337
1682096499904474400,18.343474365234375,-4.252053048598766,14.828904161763191,-10.886495739006996
1682096499924603100,18.36360302734375,-4.358777393305301,13.448304374855756,-5.081029006814957
1682096499944731100,18.383731201171877,-3.8174493331789967,10.61027875099182,-0.15904606809616087
1682096499964860400,18.4038603515625,-2.805083139204979,8.974161065226793,4.226379678159952
1682096499984988400,18.423988525390627,-3.4232959938302634,7.5757327761620274,6.13530951193273
1682096500005117400,18.444117431640624,-2.322073997056484,7.800323037314414,11.21998885794878
1682096500025245400,18.464245361328125,0.7125263383090495,9.148266755288839,19.785504824876785
1682096500045374500,18.48437451171875,0.7900466542325913,11.052745454871653,24.901051018321514
1682096500065502500,18.50450244140625,-0.02859831797480583,12.067915015828609,23.72701542201042
1682096500085631500,18.524631591796876,-1.465595991669595,10.824649815946817,19.90586489622593
1682096500105759500,18.544759521484377,-1.6160788140818476,10.212426264864206,16.041298422563074
1682096500125888300,18.56488818359375,-1.287376436547935,9.648036478102206,11.927690552580357
1682096500146016300,18.585016357421875,0.6404445601776242,8.510248253214359,7.1483379692077635
1682096500166145300,18.605145263671876,5.5275417712152,8.908634992349148,0.7929489515453576
1682096500186273300,18.625273193359376,9.039767802125215,13.413054197776317,-1.1202245111465454
1682096500206402300,18.64540234375,-0.16634060901850461,13.660131600546835,-11.449434742438793
1682096500226530300,18.6655302734375,-8.044224148136378,10.619781907874344,-29.7468847833395
1682096500246659300,18.685659423828124,-6.840659675002097,3.484629875715077,-31.50668613191843
1682096500266787300,18.705787353515625,-4.517868177326023,0.6049789867818355,-16.01629959038496
1682096500286916400,18.725916259765626,-3.9053719467818735,-0.06987813060730695,-8.161938673412799
1682096500307044400,18.74604443359375,-3.9336043540537355,-2.5375182442009447,-5.708960999161005
1682096500327173000,18.766173095703124,-3.3047780432164666,-5.813202294880152,-2.516858902531862
1682096500347301000,18.786301025390625,-3.092055329990387,-8.443843059414625,0.3196066324084997
1682096500367429400,18.806429443359374,-1.3939980515323578,-12.551027033829689,1.8350924441456793
1682096500387558100,18.82655810546875,0.3699392278075218,-15.525441488301754,5.443440761727095
1682096500407686100,18.84668603515625,0.7956570414602756,-15.934205829066038,7.047087671998143
1682096500427815400,18.8668154296875,-0.6913070977348834,-14.829266565334796,5.199718514603376
1682096500447943400,18.886943359375,-1.1544598851602523,-14.467065238302945,4.087089865413308
1682096500468072400,18.907072509765626,-2.835581153321266,-13.966574215477705,3.5065269424855705
1682096500488200400,18.927200439453124,-6.699608697801828,-12.183849087429046,2.5641736114144322
1682096500508329500,18.94732958984375,-9.724295541918277,-10.597437974119186,-0.48981765311956404
1682096500528457500,18.96745751953125,-5.406461568897962,-8.976658142739534,-4.7154912288367745
1682096500548586500,18.98758642578125,-1.0274047000866382,-5.680954217338562,-10.5075548740983
1682096500568714500,19.007714599609375,-5.125285497170687,-1.2131725516960024,-19.953727886641023
1682096500588843300,19.02784326171875,-11.299541118091344,5.363930002638697,-27.56510773024559
1682096500608971300,19.04797119140625,-8.493389472872018,14.397217210572958,-29.94201689481735
1682096500629100300,19.068100341796875,-3.1325147661507127,15.453897178047894,-24.537915625309942
1682096500649228300,19.088228271484375,-5.029201788944006,13.197581893581152,-14.434794953817129
1682096500669357300,19.108357421875,-7.652963899880647,11.686596315872668,-6.893233327326178
1682096500689485300,19.1284853515625,-5.849767646211386,10.438273832601308,1.6074275978535413
1682096500709614300,19.1486142578125,-1.6140616290405392,8.537197050416468,11.46883619300127
1682096500729742300,19.168742431640624,-1.8237740545347332,8.418888650900126,18.004166182750463
1682096500749871400,19.188871337890625,-3.289520268329978,7.726381602790951,18.081298522269726
1682096500769999400,19.208999267578125,-3.319834158051014,9.379384372383356,21.22833398120403
1682096500790128000,19.229128173828126,-3.4058547374248502,11.738442238444089,24.056148007655143
1682096500810256100,19.249256103515624,-4.346579298250377,12.981311132484674,23.84046176844835
1682096500830385400,19.269385498046876,-3.987367800684273,11.966812602657079,20.012736540448664
1682096500850512600,19.2895126953125,-2.78971255159378,10.546904887712001,12.953439959740638
1682096500870641700,19.3096416015625,-2.0058134602054953,9.836970319461821,7.774056961679459
1682096500890769700,19.329769775390623,-1.0646917167559264,11.48823296738863,5.663433758217096
1682096500910898700,19.349898681640624,4.233120969113707,15.88641765745282,4.742495555618405
1682096500931026700,19.370026611328125,2.7028292179107662,16.298727707999944,-4.000183735376596
1682096500951155700,19.39015576171875,-3.575339489687979,14.866440988475084,-23.061006504726407
1682096500971283700,19.41028369140625,-9.553039980590343,11.638445740687846,-33.89495606393814
1682096500991412700,19.430412841796876,-5.168092373239994,6.454727343770862,-24.079917005777357
1682096501011540700,19.450540771484373,-2.5631822622895237,0.2177756127014756,-12.892367943662403
1682096501031669800,19.470669677734374,-3.8124475793689485,-2.604245801822841,-9.843049347114562
1682096501051797800,19.4907978515625,-6.794779382836818,-5.666139510044455,-5.698064342093468
1682096501071926800,19.5109267578125,-9.568370820713042,-8.04729522614479,-3.2710669122725724
1682096501092054800,19.5310546875,-8.782669356077909,-11.469129622989893,-3.1435049467205998
1682096501112183800,19.551183837890626,-4.161017271411419,-15.496148758321999,-1.1596931827038526
1682096501132311800,19.571311767578123,0.17728768109902737,-16.8407840824008,3.1558371895492074
1682096501152440800,19.59144091796875,0.3570154488265514,-16.231158146595956,4.453655232873559
1682096501172568800,19.61156884765625,-2.176213281486928,-14.236188444226979,5.052818226853013
1682096501192697900,19.63169775390625,-5.1595244513809675,-13.575301107740401,4.049233889749646
1682096501212825900,19.651825927734375,-5.377219107800721,-13.444834652918576,2.8984809693485496
1682096501232954600,19.67195458984375,-3.267320711481571,-12.979836968278883,1.4122563234090804
1682096501253083000,19.692082763671873,-3.3857273106753825,-12.297241657853126,-2.4695056152045725
1682096501273211000,19.7122109375,-5.235541523134708,-9.938588280940055,-10.157086070436238
1682096501293339600,19.732339599609375,-5.2475791669309135,-5.477262367308139,-16.518444810158012
1682096501313467600,19.752467529296876,-4.775445639061927,-1.3819959174409508,-22.088857754850387
1682096501333596700,19.7725966796875,-5.5655801177084445,6.348871014070511,-25.830485246586797
1682096501353724700,19.792724609375,-5.010453833854198,13.868254126501082,-26.228055993163583
1682096501373853700,19.812853759765623,-3.614659984946251,12.898146527063846,-18.18656623842716
1682096501393981700,19.832981689453124,-2.637881821703911,13.289585639017819,-11.100846930217742
1682096501414110700,19.85311083984375,-2.229834981559217,13.26049047743678,-4.580598774266242
1682096501434238700,19.87323876953125,-1.74213461285457,12.422287256669998,3.028435967516899
1682096501454367700,19.89336767578125,-0.9567151800312101,13.101307631218432,13.858444680148363
1682096501474495700,19.913495849609376,-1.224573212762922,14.471595282948016,19.726503185331822
1682096501494624800,19.933624755859373,-2.4246437063015995,14.278079959017038,19.447679229688642
1682096501514752800,19.953752685546874,-2.0365315468132494,13.898067080962656,19.997875655925274
1682096501534881800,19.9738818359375,-0.39948008732944723,13.908981273686885,22.68554237601757
1682096501555009800,19.994009765625,-0.9381357133761048,14.544074828225373,20.793723251521588
1682096501575138800,20.014138916015625,-3.4618998652517794,13.265934714317321,14.408137248516082
1682096501595266800,20.034266845703126,-5.465478406012058,11.564792475455999,8.24213273859024
1682096501615395800,20.054395751953123,-3.113824970988929,10.752476560139655,7.561319050884246
1682096501635523800,20.07452392578125,1.118509523922205,14.429690908676385,5.629133429208397
1682096501655652900,20.09465283203125,4.125236348456144,16.773740590697525,-2.1353882268846034
1682096501675780900,20.11478076171875,-0.42104295370951295,11.753633962357043,-14.551480720567703
1682096501695909600,20.13490966796875,-3.0781279269248247,10.759656827032565,-29.394724373328685
1682096501716037600,20.15503759765625,-3.230882785922289,5.934910273706913,-33.76283073599338
1682096501736166700,20.175166748046873,-4.288219756001234,2.060045693391561,-21.648979313898085
1682096501756294700,20.195294677734374,-5.202461091309786,-1.156850068232417,-14.739135628032683
1682096501776423700,20.215423583984375,-6.035173313444853,-5.174986808928847,-10.756640694081783
1682096501796551700,20.2355517578125,-7.426199801820516,-9.30587489953637,-7.216019174292684
1682096501816680700,20.2556806640625,-5.4770987011790275,-13.110087150001526,-2.9350258624136445
1682096501836808700,20.27580859375,-2.894257798695564,-16.32739733764529,-0.1880804394006729
1682096501856938800,20.295938720703123,-1.3151296820007263,-16.82850444654226,3.4268466720491646
1682096501877066800,20.316066650390624,-1.9111634380437432,-15.772790109229087,4.907416068705916
1682096501897195800,20.33619580078125,-4.208417612750828,-14.96443608328104,3.8158588491171597
1682096501917323800,20.35632373046875,-5.9320133832216255,-14.526682963919638,4.116550353175401
1682096501937452800,20.376452880859375,-8.250749760288,-13.704602025914191,2.810977457940578
1682096501957580800,20.396580810546876,-10.047422749668359,-12.589514293134211,1.0572399394452572
1682096501977709800,20.416709716796873,-9.501971472132205,-11.185781467920542,-2.306861230355501
1682096501997837800,20.436837890625,-5.205699342578649,-9.288266177609563,-6.1198664436072105
1682096502017966800,20.456966796875,-3.2541829974889755,-5.714904417735338,-11.605104612100124
1682096502038094800,20.4770947265625,-10.34765072786808,-2.5183891808390615,-21.422659452474115
1682096502058223600,20.4972236328125,-11.535345431697367,4.77825777387321,-32.538619780671596
1682096502078351600,20.5173515625,-5.287429531282187,15.757812320327758,-34.565285767030716
1682096502098481000,20.53748095703125,0.13748203267231582,15.3960704275012,-24.596416914117334
1682096502118609000,20.55760888671875,0.6331798298716544,13.913027334207296,-14.236010749572515
1682096502138738000,20.577738037109373,-0.8668437704481184,12.405305726730823,-8.067329713913798
1682096502158866000,20.597865966796874,-1.7363140900075436,12.812623960340023,-0.8455348788291216
1682096502178995000,20.617994873046875,-4.1090263874113555,13.78718678562045,6.91536741772294
1682096502199123000,20.638123046875,-8.042727772098779,15.539152033746241,11.218965944641829
1682096502219252000,20.658251953125,-8.004207779568434,16.43010835505724,13.727315377503633
1682096502239380000,20.6783798828125,-4.155604890973866,17.181203785735367,16.965308287692068
1682096502259508700,20.6985087890625,-2.165060896092653,18.623606241083145,22.329241212940214
1682096502279636700,20.71863671875,-3.2310826924085614,19.920122554159164,25.394689106512068
1682096502299765800,20.738765869140625,-6.463174269598722,20.30974614112377,23.09766771764755
1682096502319893800,20.758893798828126,-7.5218731756806365,19.539713370263577,17.175113067644833
1682096502340022800,20.779022705078123,-5.229683444756269,17.348365355747937,11.362944207465649
1682096502360150800,20.79915087890625,0.5131660877421498,15.647206750273703,7.102150218528509
1682096502380279800,20.81927978515625,8.492205231523513,16.001946070861816,1.7034341491907834
1682096502400407800,20.83940771484375,8.058700417256356,15.738644678521155,-8.012562935459613
1682096502420536800,20.859536865234375,1.264889879451692,12.78144673178792,-26.410532036685943
1682096502440664800,20.879664794921876,-5.34076189301908,8.121282253375648,-43.663345599126814
1682096502460793900,20.8997939453125,-3.459020510423183,-0.08871668659001589,-39.46525794947147
1682096502480921900,20.919921875,-0.9681577805437147,-2.441682373255491,-19.476639951235054
1682096502501051000,20.94005078125,-1.4250246195673941,-4.899433253258467,-10.867379535126686
1682096502521178600,20.9601787109375,-3.685473642838001,-8.04179370611906,-7.0539213174104685
1682096502541308000,20.980307861328125,-5.831093340879678,-11.073743819236755,-1.6014327413529157
1682096502561436000,21.000435791015626,-6.383695659214258,-13.308781337875127,2.9217279894232746
1682096502581565000,21.02056494140625,-4.529103564828634,-14.52752233735323,3.9942397322803735
1682096502601693000,21.04069287109375,-2.341574816340208,-15.494892036259174,4.2044682906031605
1682096502621822000,21.060822021484373,-1.2219932792723178,-15.02168883333206,5.7188534476220605
1682096502641950000,21.080949951171874,-1.8471816719986498,-14.618310277259349,6.7715989982575175
1682096502662079000,21.101078857421875,-3.659353697675466,-13.452240545260905,6.719063339856267
1682096502682207000,21.12120703125,-5.398597411394119,-11.98309387537241,5.694017697051168
1682096502702335700,21.141335693359373,-7.010878294497728,-12.346030530941485,0.5699591113269329
1682096502722463700,21.161463623046874,-5.21974189645648,-11.558789435648917,-3.716917997893691
1682096502742592800,21.1815927734375,-2.8080302985727785,-7.965684279906749,-5.759222867411375
1682096502762720800,21.201720703125,-7.0961097693204875,-4.22241077452898,-12.57899991338253
1682096502782849800,21.221849853515625,-10.412400555676221,-1.9513076707750558,-26.183141331160066
1682096502802977800,21.241977783203126,-3.907700681990385,5.740884662166238,-29.483798495054245
1682096502823106800,21.26210693359375,2.159766296815872,10.475454100960492,-26.275923659753797
1682096502843234800,21.28223486328125,1.2825649446129799,11.328222438174485,-16.174437311464548
1682096502863363800,21.30236376953125,-2.452897010231018,12.579895400917529,-8.073771729660034
1682096502883491800,21.322491943359374,-4.642118826372921,13.0789905854702,-2.2514842110484836
1682096502903620600,21.34262060546875,-4.668941074585915,12.454333084750175,4.70197883631289
1682096502923748600,21.36274853515625,-3.160726130634546,12.786936561375855,11.091295842540264
1682096502943877600,21.382877685546877,-2.578225517642498,14.132965385639666,15.378883145856856
1682096502964005600,21.403005615234374,-2.418368133163452,14.727861369824408,17.136462142211197
1682096502984134700,21.423134765625,-2.8549127535179255,15.49191448175311,17.38008151348233
1682096503004262700,21.4432626953125,-0.9638274962544441,16.305533880883456,19.841193394351006
1682096503024391700,21.4633916015625,0.504168834555149,16.553323231315613,19.986528917002676
1682096503044519700,21.483519775390626,-0.017568097655475137,15.790013631230591,14.879832384967804
1682096503064648700,21.503648681640627,0.1907134182527661,13.597511770504711,8.109988705945014
1682096503084776700,21.523776611328124,3.032808775773644,12.70501581853628,7.045331183719634
1682096503104905700,21.54390576171875,8.409094402116537,17.318922988164424,4.423222100687027
1682096503125033700,21.56403369140625,4.686696511507034,15.703227328181265,-9.703711603572964
1682096503145162800,21.584162841796875,-0.6279344765640795,10.964905843377112,-29.579508109271526
1682096503165290500,21.60429052734375,-5.032624749130011,6.780644474500417,-32.17096954058409
1682096503185419800,21.624419677734377,-6.675467943757772,3.23576705083251,-24.5957388687253
1682096503205547800,21.6445478515625,-7.723883940756321,-1.6237117931783198,-17.398161944574117
1682096503225675800,21.66467578125,-4.621793538963795,-3.6958515367284415,-10.09962289250493
1682096503245804800,21.6848046875,-3.051502370327711,-8.37270265378654,-7.330906367188692
1682096503265932800,21.704932861328125,-0.6726913176573812,-13.074665123486518,-7.872267745062708
1682096503286061800,21.725061767578126,2.178199925259501,-17.216456300902365,-2.486008421716094
1682096503306189800,21.74518994140625,-1.6004466529250143,-18.65158613489866,3.428615435287356
1682096503326318800,21.76531884765625,-7.120806988203525,-18.129951786279676,2.9364006578981874
1682096503346446800,21.78544677734375,-7.390061151468753,-17.676745077198742,3.67473305311501
1682096503366575600,21.80557568359375,-4.34484706763029,-17.236615291833875,5.21644051682353
1682096503386703600,21.82570361328125,-3.9668016902565952,-16.023782639616726,5.052971371588111
1682096503406832600,21.84583251953125,-5.326837997084856,-13.710138617253303,3.6687609929680822
1682096503426960600,21.865960693359376,-7.505207287561893,-11.131019950163363,2.009799607232213
1682096503447089700,21.886089599609374,-8.600699508512019,-8.821693206477164,-2.7650176707983016
1682096503467217700,21.9062177734375,-5.2650364976882935,-5.169186598217487,-8.98675342029631
1682096503487346700,21.9263466796875,-4.825705169224738,0.1980177499167621,-18.342294560277463
1682096503507474700,21.946474609375,-7.685846763306856,1.1736745079137385,-27.780658360373973
1682096503527603700,21.966603759765626,-8.350911093217134,10.47672485154867,-31.398907309722897
1682096503547731700,21.986731689453126,-8.336133210802078,15.895120019346475,-27.145542594003675
1682096503567860500,22.006860595703124,-7.925482033377885,16.542474505043028,-13.443696004277466
1682096503587988700,22.02698876953125,-6.02318593853116,14.90317000593543,-7.054506423822045
1682096503608117800,22.04711767578125,-4.476546863639355,13.243957860308885,-0.8138263198792934
1682096503628245800,22.067245849609375,-0.17449147450923919,13.430794437128304,9.34487536906004
1682096503648374800,22.087374755859376,2.5461188992857933,13.293642220932245,17.094920171511173
1682096503668502800,22.107502685546876,1.9780862259767948,13.484950390207766,18.560283815729615
1682096503688631800,22.1276318359375,-0.9154663470588624,13.981440945219992,18.010336395817994
1682096503708759800,22.147759765625,-1.4631822085261343,14.282676639157533,21.154457428610325
1682096503728888800,22.167888916015624,-0.882784559162706,15.572814649373292,22.42798332672119
1682096503749016800,22.188016845703125,-1.326824942100048,14.747922161078453,17.580773597174883
1682096503769145600,22.2081455078125,-1.1540260968528688,12.794046685642003,10.278884065634012
1682096503789273900,22.22827392578125,0.21262568259239195,12.187034731727838,8.591529529106616
1682096503809402600,22.248402587890624,3.496816864854097,12.914651087141037,8.830656849655508
1682096503829530600,22.268530517578125,6.145582484143972,15.331370868575572,4.296584848764539
1682096503849660000,22.288659912109374,1.9313127843640743,19.593727869045733,-7.372174197122455
1682096503869788000,22.308787841796875,-10.652490583777427,16.126778903710843,-20.476914725399016
1682096503889917000,22.3289169921875,-10.157537321335077,16.068839924961328,-21.563379590284825
1682096503910045000,22.349044921875,-12.409833433288336,12.550587473368644,-19.909568426918984
1682096503930174000,22.369174072265626,-16.77019254282713,4.370917620693147,-22.804008596444127
1682096503950302000,22.389302001953126,-12.749027978742122,-3.1871120332568883,-22.919271636915205
1682096503970431000,22.409430908203124,-3.3391654659867283,-9.105385060417651,-16.823278820848465
1682096503990559000,22.42955908203125,-0.7169757189333439,-12.7415706484735,-11.290753416001795
1682096504010688000,22.44968798828125,-2.081177474877983,-13.327187932181358,-6.0131087811529635
1682096504030816000,22.46981591796875,-2.8522236605644222,-15.479703819477557,0.3077671415328979
1682096504050945000,22.489945068359376,-2.408998247271776,-16.80208405712843,2.693098682013154
1682096504071073000,22.510072998046876,-0.8923487255174666,-16.69814437470436,3.4486470004469156
1682096504091202000,22.5302021484375,0.5999801555812359,-17.97641775960326,4.9979170083642
1682096504111330000,22.550330078125,-0.7716273465752601,-18.065429922008512,5.164060925766825
1682096504131459000,22.570458984375,-5.01899252961874,-16.918396898913382,2.792313089480996
1682096504151587000,22.590587158203125,-8.962811988216638,-14.638148950195312,0.7654314145445823
1682096504171716000,22.610716064453126,-10.432647224891186,-11.713548620206117,-1.4523258834689854
1682096504191844000,22.630843994140626,-7.970836255842447,-8.288912025421858,-6.1840890326708555
1682096504211972900,22.650972900390624,-4.825518122220039,-3.528240761643648,-13.760875117278099
1682096504232100900,22.671100830078124,-4.773382276791334,-0.8438409343928098,-22.186711395359037
1682096504252230000,22.69122998046875,-5.064601603627205,8.149468483418225,-27.095039902734754
1682096504272358000,22.71135791015625,-6.001730478048324,16.812979545152185,-29.795213053178784
1682096504292487000,22.73148681640625,-8.03008456362486,18.736733438569306,-19.648612136399745
1682096504312615000,22.751614990234376,-7.6067247112751,18.98503249208927,-9.96011972926855
1682096504332744000,22.771743896484374,-5.1626481363594525,16.214056205147504,-2.9925089140892025
1682096504352872000,22.791871826171874,-3.1932454214453694,13.435768718409538,2.2973504746884106
1682096504373001000,22.8120009765625,-1.1931459549725054,11.091016441076993,6.164800979354977
1682096504393129000,22.83212890625,-0.6226302326761186,10.107484711921215,11.142730261701345
1682096504413258000,22.852258056640625,-0.8820189816176891,9.643633859229087,14.363490297538041
1682096504433385700,22.8723857421875,-0.3029205782845616,11.351831277298926,18.23752018059492
1682096504453515000,22.892514892578124,0.3430067972183227,14.09674256413579,22.442816154193878
1682096504473643000,22.91264306640625,0.35209976586475966,15.509631340229511,25.308549284672736
1682096504493772000,22.93277197265625,-0.8322934122011065,14.855840099483727,23.379138388407227
1682096504513900000,22.952900146484374,-1.7216519429266453,13.453865516114234,16.956753225314618
1682096504534029000,22.973029052734375,-0.9010650428712368,12.150973238265514,11.754110932219028
1682096504554157000,22.993156982421876,1.1907022150821982,11.964046645075083,10.453423470938205
1682096504574286000,23.0132861328125,3.030362551665306,14.166712172418832,3.1284681211084124
1682096504594414000,23.0334140625,0.35706951710134743,16.846069329327342,-8.088630276095866
1682096504614542800,23.05354296875,-6.625998687189817,14.311483046925067,-20.350751520729062
1682096504634670800,23.0736708984375,-10.671436107265949,11.37864329637885,-35.35935173990726
1682096504654800000,23.0937998046875,-10.505270562553406,1.5213628870770335,-35.763069318675996
1682096504674927900,23.113927978515626,-7.833052756005525,-0.22868659055531024,-20.117120459508893
1682096504695057000,23.134056884765624,-4.761163431209326,-0.6900199074685573,-13.129614857292175
1682096504715185000,23.154184814453124,-3.434396941298246,-3.659928867214918,-8.676629486504197
1682096504735314000,23.17431396484375,-2.4059926357150077,-7.074371984764933,-4.344824271276593
1682096504755442000,23.19444189453125,-0.22793664897084234,-10.760196925258636,-0.4496691826045513
1682096504775571000,23.214571044921875,0.9886778598725795,-13.43971774829626,2.488762688860297
1682096504795699000,23.234698974609376,1.0446072523653507,-15.360976902288197,4.826869536828995
1682096504815828000,23.254827880859374,-0.156164375180006,-16.36173332248926,5.733375309449434
1682096504835956000,23.2749560546875,-0.2360475477773696,-16.16745695105791,5.156444605544209
1682096504856084200,23.295084228515623,-0.5651963539045304,-15.964875692617893,5.233082439544797
1682096504876212200,23.315212158203124,-2.8700667757689953,-14.269469951581954,6.198433199843764
1682096504896341000,23.335341064453125,-9.958262118703127,-12.4968441927433,4.2966017998993395
1682096504916469000,23.355468994140626,-12.482289597690105,-11.30425119547844,-2.0045248816996812
1682096504936598000,23.375597900390623,-4.111406560546159,-10.38261916539669,-7.633989734819531
1682096504956726000,23.39572607421875,-0.7040660415429622,-5.457461103773117,-13.760566489720343
1682096504976855000,23.41585498046875,-9.770483292597532,1.1675760449081658,-25.134897183597086
1682096504996983000,23.435983154296874,-10.912072078812121,10.004961910557746,-31.254032390320297
1682096505017112000,23.456112060546875,-4.940086750686168,12.237370249736308,-27.398518991684913
1682096505037240000,23.476239990234376,-4.896811088061332,13.593811746942997,-19.3145613835752
1682096505057369000,23.496369140625,-6.55935617750287,13.290420336276291,-10.594702411675453
1682096505077497000,23.5164970703125,-6.788698017096519,12.962448611104488,-0.9336042074263096
1682096505097625900,23.5366259765625,-4.069559469419717,11.221178944516181,6.585304273229837
1682096505117753900,23.55675390625,0.5703671076059341,11.569253546518087,15.009390492773056
1682096505137883100,23.576883056640625,2.2650809208549556,12.267725640511513,19.39349171242714
1682096505158011100,23.59701123046875,0.44766076539158817,12.430047369277476,18.53496934173107
1682096505178140200,23.61714013671875,1.118578497505188,13.305114047539233,21.24873847132921
1682096505198268200,23.63726806640625,1.2062461134336888,14.9545483109951,24.482491259729862
1682096505218397200,23.657397216796873,-1.403334327415377,15.896296077388524,22.379486714577673
1682096505238525200,23.677525146484374,-5.640360341143608,17.39805673063397,17.18630432374477
1682096505258654200,23.697654296875,-5.34421115669012,16.776089199650286,12.14064941264987
1682096505278782200,23.7177822265625,-1.2640731562413274,14.988913521933554,7.969518158981203
1682096505298911000,23.737910888671873,2.623562204450369,14.35170516719818,0.511992660048604
1682096505319040000,23.7580400390625,7.5108070072650905,16.481457434022424,-5.149037544158101
1682096505339168000,23.77816796875,-0.4200152180969715,16.685186693453787,-15.190263777273893
1682096505359297000,23.798297119140624,-9.713405899113416,14.442933836609125,-38.45902222107649
1682096505379425000,23.818425048828125,-8.319747893190383,3.508286645634472,-41.862756313085555
1682096505399554000,23.838553955078126,-2.633921101379394,-1.5066457949385046,-22.45877360178232
1682096505419682000,23.85868212890625,-1.9422741772308945,-2.4709549372300503,-11.57159514120817
1682096505439811000,23.87881103515625,-5.5992953403055665,-5.679312879872322,-8.887477638030052
1682096505459939000,23.89893896484375,-5.877159511005878,-9.02623728942275,-6.072963822656869
1682096505480068000,23.919068115234374,-2.4730747058629987,-12.769317902576923,-1.4378221418201922
1682096505500196000,23.939196044921875,0.45777182503938674,-16.724143908357618,1.36137953813076
1682096505520325000,23.9593251953125,2.6150807918310166,-17.669633783888816,3.5670693817317485
1682096505540453000,23.979453125,0.37188320148214693,-16.390933698010443,5.813049734666944
1682096505560582100,23.99958203125,-3.701469668871164,-15.166428143656253,6.271932151296735
1682096505580710100,24.019710205078123,-7.104803947907686,-13.752765460580587,6.91510730548203
1682096505600839200,24.039839111328124,-9.512641334706544,-11.717864729839564,7.944552060028911
1682096505620967200,24.05996728515625,-12.83474811386466,-10.46503207566738,5.249224596050381
1682096505641096200,24.08009619140625,-15.523165360063313,-10.027239208817482,-2.581047004804015
1682096505661224200,24.10022412109375,-8.518915543794632,-8.085099763882159,-7.525773105728626
1682096505681353200,24.120353271484376,-1.9259107791900634,-5.273223311275244,-14.594913035058974
1682096505701481200,24.140481201171873,-8.637379426133633,-1.2170368259087205,-26.765182509946822
1682096505721610000,24.16060986328125,-16.589878061252833,12.535179476356506,-38.74498669612407
1682096505741738000,24.180738037109375,-9.309742096358537,18.86324735637307,-33.568704002165795
1682096505761867000,24.200866943359376,-2.531711603748798,17.27115001412034,-17.267038487148284
1682096505781995000,24.2209951171875,-4.931405431580544,16.02879082316756,-7.179801613485813
1682096505802124000,24.2411240234375,-4.831809915840625,15.254396349966525,0.04455576556324958
1682096505822252000,24.261251953125,-1.68742482528463,14.02216107814312,7.765435848328471
1682096505842381000,24.281381103515624,0.75564900232926,12.878377996754645,15.21940219347477
1682096505862509800,24.301509765625,0.5303691514775156,12.709945676153897,18.183951087492705
1682096505882638600,24.321638671875,-2.5627076305150984,13.754807780063151,17.2881210226655
1682096505902766600,24.3417666015625,-3.5608231808185575,15.028620093899965,19.939177967762944
1682096505922895600,24.3618955078125,-2.1184522896528244,16.511422364175317,24.806007759058474
1682096505943023600,24.382023681640625,-2.556016316182911,17.27771302589774,24.702942521381377
1682096505963152600,24.402152587890626,-4.2343142705515024,17.477703683322666,19.63660839487314
1682096505983280600,24.42228076171875,-4.917612468549609,16.203185267043114,12.054396193563937
1682096506003410000,24.442409912109376,-1.7987585634827612,13.286443249338864,7.169047579759359
1682096506023537700,24.46253759765625,2.986161298628151,13.13215869655609,3.8234775074273344
1682096506043667000,24.4826669921875,7.07971217674911,19.338453131294248,-0.5678372968673706
1682096506063795000,24.502794921875,-2.511633569099009,21.92241631580591,-12.967355087846517
1682096506083923700,24.522923828125,-7.428584651130437,17.05764637964964,-40.744790394520756
1682096506104051700,24.5430517578125,-4.934296476846933,3.740341543579101,-46.64691366639137
1682096506124180700,24.5631806640625,-3.238670955580473,0.28678017534464595,-22.676762857234475
1682096506144308700,24.583308837890623,-6.7423688121199605,-1.1439938015297055,-10.894733990520239
1682096506164437800,24.603437744140624,-10.970696117216349,-5.464446140354871,-10.173106646388769
1682096506184565800,24.623565673828125,-10.857197163808346,-10.379265178793668,-7.8720777754485605
1682096506204694800,24.64369482421875,-5.281157611405849,-14.337951367133854,-2.4709429545313117
1682096506224822800,24.66382275390625,1.2643747695364058,-17.93315028028488,0.4721715217918157
1682096506244951800,24.683951904296876,0.3026337241671979,-17.815806341886518,3.0598516809999943
1682096506265079800,24.704079833984373,-4.204717296928167,-14.888506689810752,4.779409866517782
1682096506285208600,24.72420849609375,-7.345354579257965,-13.529025678777694,5.459460168635845
1682096506305336800,24.7443369140625,-8.822698584127426,-14.096101928144693,5.14501077286005
1682096506325465600,24.764465576171876,-8.545062376964092,-14.16147602533102,2.8692601355612277
1682096506345593600,24.784593505859377,-8.601994809019565,-12.61202773823738,0.9066969112783669
1682096506365722600,24.80472265625,-7.046826390713453,-10.927794548600911,-1.6320605193287132
1682096506385850600,24.8248505859375,-3.8710383000254627,-8.11919258762002,-8.154449194440245
1682096506405980000,24.84497998046875,-5.315407087010145,-4.9248091020554305,-17.654017697083948
1682096506426107600,24.865107666015625,-9.86746599549055,2.008423350442946,-25.893096893322465
1682096506446237000,24.88523681640625,-10.544798270821572,11.552925512051582,-28.380534471058844
1682096506466365000,24.905364990234375,-4.603555286961794,14.376595278304814,-25.39655256229639
1682096506486494000,24.925493896484376,-5.153119260513782,15.347197383260726,-16.35082380594015
1682096506506622000,24.9456220703125,-6.485653812432289,15.328563994461296,-8.749967109915614
1682096506526750700,24.965750732421874,-6.298896730589866,13.994692056459188,-3.441667224562168
1682096506546878700,24.985878662109375,-4.328339000421762,13.224407941186428,2.536398300260305
1682096506567007700,25.0060078125,-1.0733647064246237,12.42705695528984,8.838452033576369
1682096506587136800,25.02613671875,1.6553098774909971,12.080703185731172,14.706646732360124
1682096506607264800,25.0462646484375,2.1064558546498415,12.640311583435535,18.283069633370637
1682096506627392800,25.066392822265627,-0.7224594110414385,13.939370566731691,21.707880415678023
1682096506647521800,25.086521728515624,-3.1345430571079254,15.822646319288014,24.2031903342247
1682096506667649800,25.10664990234375,-4.436448662006855,16.699866376191377,25.14967623505592
1682096506687778800,25.12677880859375,-4.814765257537364,15.66200333738923,18.562175328564642
1682096506707907600,25.146907470703123,-3.5581828954428434,12.559494417923688,10.687688153886794
1682096506728035600,25.16703564453125,-1.1414287733472883,10.972218212217092,9.593370237413048
1682096506748164600,25.18716455078125,0.7651590273439883,13.028536994040012,7.226918169447779
1682096506768292600,25.207292724609374,2.5396657776236533,18.570822745400665,-0.25034488013386724
1682096506788422000,25.227421875,-0.049852995188534255,15.766728617233037,-14.459383451628684
1682096506808549600,25.247549560546876,-1.3164087620258331,11.381813743108511,-32.943080871284
1682096506828679000,25.267678955078125,-8.881981963223218,7.90820239727497,-35.20649692766666
1682096506848806700,25.287806640625,-11.141948171412944,4.402244194588065,-26.600312265741824
1682096506868935700,25.307935791015623,-11.350297491860388,-0.6152768011733889,-15.138181707859038
1682096506889063700,25.328063720703124,-8.461563425022364,-3.4997497034355995,-7.668239794945716
1682096506909192400,25.3481923828125,-7.505962489843368,-7.16548316527605,-5.158965063932538
1682096506929320400,25.368320556640626,-4.835191959494352,-11.732644950342177,-4.652758586069941
1682096506949449500,25.388449462890627,-0.9898644393086433,-16.05938352982998,-1.5858850436091423
1682096506969577500,25.408577392578124,0.560257217001915,-17.30145981218815,2.4224106865525243
1682096506989706500,25.42870654296875,-0.6994166813671588,-16.233753423786162,4.29622653684616
1682096507009834500,25.44883447265625,0.09456628940105438,-15.274602102649212,6.520611728566885
1682096507029963500,25.468963623046875,0.4050292093565687,-15.743520760124921,7.840597764557599
1682096507050091500,25.489091552734376,-4.24245870630145,-15.364840591979027,5.508512661096454
1682096507070220500,25.509220458984377,-11.41271507732868,-13.372089734703302,2.635187760314345
