time,seconds_elapsed,z,y,x
1682096726133604900,0.04660498046875,5.157993588551879,-2.1917622944049535,2.005650378598273
1682096726153734700,0.066734619140625,2.413478023034334,-2.9327605478301644,1.4491294255152345
1682096726173864700,0.08686474609375,0.575772181519866,-0.9985247156262397,2.842785677872598
1682096726193994800,0.106994873046875,3.179382315787673,3.6582808077469466,5.333221560642123
1682096726214124800,0.127124755859375,7.755308422067761,3.5427252140700816,6.927220352602005
1682096726234254600,0.147254638671875,6.712688544127345,0.11711597486138343,5.056474411273002
1682096726254384600,0.167384521484375,-4.950870595028996,0.07558744816482067,2.5600202911272643
1682096726274514700,0.1875146484375,-12.005258945429324,3.5683988767698405,-0.11007803904861212
1682096726294644500,0.20764453125,-2.181175580069423,4.8595805508196355,0.9545485035166144
1682096726314774800,0.22777490234375,3.056168608573079,2.997230974175036,1.2767621035531163
1682096726334904600,0.247904541015625,4.375689949661493,0.7152332591801881,-2.373050735577941
1682096726355034600,0.26803466796875,-1.3995850578844546,4.895792266407609,-1.2309779652386903
1682096726375164000,0.288163818359375,-4.842700143167376,7.254737319743633,-1.0437591111034155
1682096726395293700,0.308293701171875,-2.7764181857347485,5.245765395507216,-1.2931190718531609
1682096726415423700,0.328423828125,3.6404876691639423,4.891660281169414,-3.9621412972301244
1682096726435553800,0.3485537109375,6.925787689450383,5.530002608370781,-0.03906009075641632
1682096726455683600,0.36868359375,6.770696496459841,6.443625519520044,3.636925592768192
1682096726475813600,0.388813720703125,7.5255112399220465,5.651279210042953,0.8949579581677913
1682096726495943700,0.408943603515625,8.392539573156833,2.9525609345823525,-3.0978175467789173
1682096726516073700,0.42907373046875,10.125279896330833,4.622577382817864,-5.306313095450401
1682096726536203500,0.44920361328125,0.624060703870654,8.088173179978131,-4.249032823994756
1682096726556333800,0.469333740234375,-2.8994612125575543,6.55711745866537,-4.94340332788825
1682096726576463600,0.489463623046875,-1.4416191960155964,8.158418682593107,-9.330033189237117
1682096726596593700,0.50959375,-0.6338040992498397,7.266659228205681,-15.360509284776448
1682096726616723700,0.5297236328125,-8.244719832473994,9.276742328554391,-14.395829555606841
1682096726636852700,0.549852783203125,-15.020108286142348,9.317213455152512,-14.923167668825387
1682096726656982800,0.569982666015625,-15.437814642775058,7.364357385891675,-11.267042870068549
1682096726677112800,0.59011279296875,-12.28876725949645,2.2994997616767883,-4.22351026020348
1682096726697242600,0.61024267578125,-9.719225399047136,-1.0677911440759897,2.0561247205555437
1682096726717372700,0.63037255859375,-8.230639284673332,-6.152015147539973,4.0918338450700045
1682096726737502700,0.650502685546875,-5.726598362660408,-11.194004521864652,2.2114298485577106
1682096726757632800,0.6706328125,-5.096459800180792,-14.477594815623759,1.7191612951546906
1682096726777762600,0.690762451171875,-8.138313467675447,-13.500311625468731,7.602642410397529
1682096726797892900,0.710892822265625,-9.89193525083661,-13.258846801882981,11.388162819874285
1682096726818022700,0.731022705078125,-9.095010381397604,-13.431838393223284,10.415541776311397
1682096726838152700,0.751152587890625,-8.113191301378608,-12.990706737339496,8.542762867850065
1682096726858282800,0.77128271484375,-7.141446456128358,-12.492485997533798,6.177345403629541
1682096726878412800,0.791412841796875,-6.371203257387876,-12.149063020730019,3.519485792779922
1682096726898541600,0.81154150390625,-7.961265294420719,-8.938297724685073,4.658615495404601
1682096726918671600,0.831671630859375,-6.58470338472724,-6.233897896456718,3.0691368112176654
1682096726938801700,0.8518017578125,-1.5441829139113425,-3.2957311056688425,0.16183073037862777
1682096726958931700,0.871931640625,1.1406325084030629,1.3420607974156737,-4.274876290303468
1682096726979061500,0.8920615234375,-4.429066735062003,3.7948879572808742,-12.304258258616924
1682096726999191800,0.91219189453125,-11.263418834352493,5.405229981276393,-17.280554971325397
1682096727019321600,0.932321533203125,-8.830309059131144,9.892741891044377,-16.625121224069595
1682096727039451600,0.95245166015625,-7.972429077991843,11.847469599395989,-14.729879139387606
1682096727059582000,0.97258203125,-6.11919658152163,11.892441544544695,-11.413860740232467
1682096727079712300,0.992712158203125,-3.4958243466854095,9.096859224134683,-5.987883154481649
1682096727099842000,1.012842041015625,-0.24377821509465575,6.0022542096614835,0.6445891126364469
1682096727119972000,1.03297216796875,1.2212624807797372,6.348631944617629,5.243274747735262
1682096727140101000,1.05310107421875,2.250599244907498,6.269865866416692,7.232379357463121
1682096727160231200,1.073231201171875,2.8485873498886822,6.697486883342266,9.093570119461416
1682096727180361000,1.09336083984375,3.2216613685905933,8.65920313540697,12.150182964670657
1682096727200491300,1.1134912109375,3.6661446729898453,12.747114254075289,15.02674377863407
1682096727220621000,1.13362109375,3.920191914772987,12.768915751516818,15.355361985015868
1682096727240751000,1.153751220703125,3.374045348449051,11.953074000161886,12.635654113018512
1682096727260881200,1.173881103515625,3.0755975316643713,9.273509922504424,9.362813176810741
1682096727281011200,1.19401123046875,3.2135800612047314,9.277369520542026,5.96606061425209
1682096727301141000,1.21414111328125,3.245050719745457,11.863338199657202,3.5757279044836756
1682096727321271300,1.234271240234375,2.9559999691203234,16.572708315265178,-2.1719103235960007
1682096727341401000,1.254401123046875,-0.82204791251868,12.218895850890874,-11.310837588131427
1682096727361531100,1.27453125,-2.8762416650116442,7.998648391875625,-21.652463064360617
1682096727381660000,1.294659912109375,-0.5340478399902582,5.948468843460082,-26.641212431406974
1682096727401790200,1.314790283203125,-3.690479780562222,2.3721093630746006,-19.207869772094487
1682096727421920000,1.334919921875,-8.736082961469888,-2.2762688159540296,-9.581736498242616
1682096727442050000,1.355050048828125,-7.205837387496232,-6.069892744648456,-5.649916104996204
1682096727462180000,1.37518017578125,-1.7901845041438935,-8.515556881016492,-5.869119412413239
1682096727482310100,1.39531005859375,-1.6374235076665877,-11.925602640390396,-3.019735943710804
1682096727502440000,1.41543994140625,-1.9931145760215818,-16.335782888674736,0.9676736502885818
1682096727522570200,1.4355703125,-1.96402832839936,-18.19323914031982,-0.011869301491975784
1682096727542700000,1.455699951171875,-0.5297077649593352,-18.36947365910411,2.6110779859304425
1682096727562830000,1.475830078125,-1.1315573676742612,-17.197979563969373,6.237172972604632
1682096727582959000,1.495958984375,-3.5420834090352056,-15.789035141587256,7.36466601344943
1682096727603089200,1.516089111328125,-5.4915749702990055,-14.067773659282922,6.021653322136402
1682096727623219000,1.536218994140625,-7.072540677684545,-11.858265718698501,5.158108154842258
1682096727643349200,1.556349365234375,-8.232655300670862,-9.471803128361701,3.951136503612995
1682096727663479000,1.57647900390625,-8.966679185038805,-7.566578578847646,1.8185107271790504
1682096727683609000,1.596609130859375,-9.246248990613221,-4.523019276478887,-3.1795471509605644
1682096727703739100,1.6167392578125,-5.435761313140392,-1.1925558801248668,-11.043193198150396
1682096727723869200,1.636869140625,-3.364636591851711,1.145033373710513,-14.356882862097024
1682096727743999000,1.6569990234375,-5.339125816249847,2.1052137456342574,-18.596781362521646
1682096727764129300,1.67712939453125,-6.109679980635643,6.17725363369286,-23.80286999667883
1682096727784258000,1.697258056640625,-8.405305531227588,11.778081005871295,-23.067076180028913
1682096727804388000,1.71738818359375,-7.54855543090105,14.151865316420793,-12.784568078678845
1682096727824518000,1.737517822265625,-2.9559026462256908,13.4389730674088,-4.641766651934385
1682096727844648200,1.757648193359375,0.9613061610832809,11.666719064491987,0.6468389373898505
1682096727864778000,1.777778076171875,2.595832486003637,10.837144555860757,4.919337977167964
1682096727884908300,1.797908203125,2.735045726382732,10.60917984983921,9.147538441014289
1682096727905038000,1.8180380859375,2.3190552337571977,11.005097568511962,10.994905844843387
1682096727925168000,1.838168212890625,2.612059690444171,11.157070921742916,12.034344754660129
1682096727945298200,1.858298095703125,4.040844247066975,12.024379825484752,14.937189179915189
1682096727965428200,1.87842822265625,4.761310730725526,13.32936469169855,16.231232965397833
1682096727985558000,1.89855810546875,3.8197099715873595,13.18536889321804,14.402278001093864
1682096728005687000,1.91868701171875,2.109243439541757,11.945426115757225,8.914237050139903
1682096728025817000,1.938817138671875,0.7265618779242038,10.124373887401818,3.8888720628798006
1682096728045947100,1.958947021484375,0.8406152503445744,10.987621533054114,-0.027319384080171583
1682096728066077000,1.979076904296875,2.649378490491211,13.829031538659333,-4.7778597144663335
1682096728086207000,1.99920703125,0.6086065296292305,10.300744015264511,-9.586877952784299
1682096728106337000,2.0193369140625,-1.0759066459923983,6.310145854356884,-17.548799080765246
1682096728126467000,2.039467041015625,-1.1410472266837954,4.7542447378620505,-21.71879928457737
1682096728146596900,2.059596923828125,-3.972962843234837,3.0812279387667774,-16.060028841996193
1682096728166727200,2.07972705078125,-9.309186800563335,-2.05715274842903,-7.826834612143039
1682096728186857000,2.09985693359375,-11.432731444919108,-5.373423807170987,-5.688616714790463
1682096728206986000,2.119986083984375,-10.205754532015323,-7.9798630273848765,-5.343381720128655
1682096728227115800,2.14011572265625,-6.98036391376853,-11.45384320653081,-3.58616395830214
1682096728247246000,2.16024609375,-2.6101442122116683,-16.071504175734518,-1.4732143577188253
1682096728267375900,2.1803759765625,-1.8324027666702865,-18.66410425568819,4.02279947181046
1682096728287506000,2.200505859375,-5.518687433630228,-18.076926298534868,7.401203892251849
1682096728307636000,2.220635986328125,-9.28946269391775,-16.86262065115571,5.871891799736023
1682096728327766000,2.24076611328125,-8.657130420786142,-16.862399701881408,4.379723150700331
1682096728347895800,2.260895751953125,-7.568290058940649,-15.559648878329991,1.9420576118707655
1682096728368026000,2.281026123046875,-11.104043095910548,-12.270728913980722,0.012795184165239334
1682096728388155000,2.30115478515625,-13.34122697892785,-8.414340486076474,-0.4093108687311411
1682096728408285000,2.321284912109375,-9.15415873593688,-4.159399899342656,-3.655993281331658
1682096728428415000,2.3414150390625,-1.957114895749092,-1.7420082099959253,-7.141455808478593
1682096728448545000,2.361544921875,-3.8859494534313677,-0.39814503933340306,-13.104330778431892
1682096728468674800,2.3816748046875,-9.508696980994939,3.1401416077673434,-18.657170657032726
1682096728488805000,2.40180517578125,-8.460932725903392,6.3757484996020795,-22.528418215894696
1682096728508935000,2.421934814453125,-7.265854341563582,7.642728921592235,-22.904803551101683
1682096728529065000,2.44206494140625,-4.778015781810879,9.30345030273795,-16.3685605381608
1682096728549195000,2.462195068359375,-0.8660722015537321,7.762596825510263,-10.053023638415336
1682096728569325000,2.482324951171875,3.796758135066926,9.113937784707545,-2.446717444813251
1682096728589453800,2.502453857421875,5.517371090334653,10.261662881720065,4.476781841439008
1682096728609583900,2.522583984375,5.964011280506849,10.867568920218943,7.619948934507369
1682096728629714000,2.5427138671875,6.78908789319694,12.364570396238564,7.632084777981042
1682096728649844000,2.562843994140625,8.36626706778109,14.749657022047042,7.775206131714582
1682096728669973800,2.582973876953125,10.340160664373636,16.991421218591928,11.785477545863388
1682096728690104000,2.60310400390625,8.282037463477254,16.198663405704497,12.465371196115017
1682096728710233900,2.62323388671875,6.0585880913019174,15.351712230336664,7.4202932081252335
1682096728730364000,2.643364013671875,3.830475988012552,13.425548937690257,4.459032249736786
1682096728750494000,2.663493896484375,2.994465893375873,11.890797868990898,2.541016607710719
1682096728770624000,2.6836240234375,3.2500551039040086,11.218953085160255,-0.07039981639385223
1682096728790753800,2.70375390625,4.894403734658658,11.210994235110283,-5.936674945291877
1682096728810883000,2.723883056640625,3.4607638469591735,5.988643032938241,-14.017985253763198
1682096728831012900,2.744012939453125,0.1087912141084671,2.7516648527503014,-22.976526725053787
1682096728851143000,2.764142822265625,-2.34836842200309,0.9990363184101879,-27.31968803155422
1682096728871273000,2.78427294921875,-5.698410379052162,0.3063143123760819,-17.316704143071174
1682096728891403000,2.804403076171875,-11.941867546492814,-5.147745166260004,-4.1834313477933405
1682096728911532800,2.82453271484375,-10.462294175136089,-7.161681434905528,-3.8822570286542173
1682096728931663000,2.8446630859375,-5.112133754652739,-9.915034386873245,-6.059270812869071
1682096728951793000,2.86479296875,-1.7786581708706914,-11.462469580578803,-1.8193904326230286
1682096728971923000,2.8849228515625,-5.468852266359329,-11.750820073980092,6.6993117606818675
1682096728992051700,2.9050517578125,-10.820178223490714,-11.986623218542336,12.308363940370082
1682096729012182000,2.92518212890625,-10.022289477455615,-10.888298404514789,12.309776145255565
1682096729032311800,2.945311767578125,-5.085184957450628,-11.499453449583052,12.078925070142745
1682096729052442000,2.965442138671875,-2.6307670212626455,-10.344791246783732,9.152061471396683
1682096729072572400,2.985572509765625,-5.197877270650864,-9.088842506417631,5.193209278839826
1682096729092702700,3.00570263671875,-7.371953832370043,-9.096765116110443,5.860412958866357
1682096729112832500,3.02583251953125,-5.066574949526786,-10.402117646592854,11.207240435534715
1682096729132962600,3.045962646484375,-3.5933301966696973,-6.9967661825150245,7.2494620096892115
1682096729153092600,3.066092529296875,-5.5097115154922,-5.123862770891189,-2.5024036761999127
1682096729173221600,3.0862216796875,-9.813584767699242,-3.459613800141215,-8.733728507298231
1682096729193351400,3.106351318359375,-13.48949446337819,-4.843538932079077,-14.722136562436818
1682096729213481700,3.126481689453125,-13.27291156759262,-0.09620923430249094,-21.308006652855873
1682096729233611500,3.146611572265625,-10.757466038990021,3.700137835745513,-25.272914492189884
1682096729253741600,3.166741455078125,-7.62308197183609,4.56728862631619,-25.67059512888193
1682096729273871600,3.18687158203125,-6.504743712827563,7.2086805019676685,-15.130407566726207
1682096729294001700,3.207001708984375,-5.430723903495073,9.231938725709915,-6.644952393984794
1682096729314131500,3.22713134765625,-2.601765383183956,10.77945341439247,-3.463150157573819
1682096729334261800,3.24726171875,2.119140271916985,12.089988900470733,1.1830232048869131
1682096729354390500,3.267390625,7.1748927986562245,13.478977745538948,6.582899550175666
1682096729374520600,3.2875205078125,8.548658355629444,14.41981833395958,11.99044014648199
1682096729394650600,3.307650634765625,8.111342458641529,16.240428663766384,11.560214500015974
1682096729414780700,3.32778076171875,8.024380799025296,16.642500228893756,11.026943489617109
1682096729434910500,3.347910400390625,7.9815388516426085,15.835498786598443,12.926117068529129
1682096729455040800,3.368040771484375,7.159027705526351,14.143316099262236,11.242981611001492
1682096729475170600,3.388170654296875,4.816939678966999,12.180255446851254,7.571669764506816
1682096729495300600,3.408300537109375,3.8627626391112804,10.566232688516378,2.4021862291693687
1682096729515430700,3.4284306640625,3.1610756747245787,9.28454335769415,-2.2963246387720107
1682096729535559700,3.4485595703125,2.9977427230894564,11.594710643857717,-3.0145979963004588
1682096729555689500,3.468689453125,-0.2871815957523882,6.421488506513834,-6.246877205017209
1682096729575819500,3.488819580078125,-2.098862330780923,0.6986435050375759,-21.75037281897068
1682096729595949600,3.508949462890625,-2.265208785018325,0.3371431658819318,-29.646763197898863
1682096729616079600,3.52907958984375,-1.648790412594378,0.00757145816758275,-18.95867523103952
1682096729636209400,3.54920947265625,-3.549274489583075,-1.3247722473539412,-7.336666830411553
1682096729656339700,3.569339599609375,-7.7837950963616365,-4.394747701352834,-4.316660253065824
1682096729676469500,3.589469482421875,-9.381487482142449,-7.694297780787944,-1.4478560445785522
1682096729696598500,3.6095986328125,-7.400713478386401,-9.485041380119323,4.668353045564889
1682096729716728600,3.629728515625,-5.41631310082674,-10.131668720585107,10.85961474634409
1682096729736858600,3.649858642578125,-5.675508811414241,-9.637813774773479,13.38281688042283
1682096729756988400,3.669988525390625,-7.85503194810152,-10.192541999220847,11.111147374957799
1682096729777118700,3.69011865234375,-6.763020555004477,-12.474842788815497,7.670779542556405
1682096729797248500,3.71024853515625,-3.781019883187115,-12.521494649875164,8.083485314422845
1682096729817378600,3.730378662109375,-3.4869042503878473,-10.708048220348358,7.988777570724487
1682096729837508600,3.750508544921875,-6.268619665747881,-8.65375831400454,4.831124856185912
1682096729857637600,3.7706376953125,-9.295354674565791,-8.277552427017689,-0.12067220603823661
1682096729877767700,3.790767578125,-9.316837023055554,-8.23504541067779,-6.10162936064899
1682096729897897500,3.8108974609375,-8.834509433430433,-4.462238060040772,-11.604987707722186
1682096729918027500,3.831027587890625,-9.050621204572915,-1.4595442904151976,-16.804160278880595
1682096729938157600,3.851157470703125,-4.3049312368273736,0.7362346192199737,-21.488165651607513
1682096729958287400,3.871287353515625,-1.4472972416520118,3.6071892106741665,-22.214333561778066
1682096729978417700,3.891417724609375,-2.095385886842012,5.13307483587265,-16.561410676181314
1682096729998546700,3.911546630859375,-2.5067408286213873,5.30993362403512,-11.030451789999008
1682096730018676500,3.931676513671875,-1.3017372625946997,5.087890709277987,-9.011022769156098
1682096730038806800,3.951806884765625,0.5568565051803365,5.946849717825651,-3.709584001743793
1682096730058936600,3.9719365234375,1.4345897357702255,7.583494642335176,2.8177316083759067
1682096730079066600,3.992066650390625,2.9754093107283115,9.771023390823602,7.878170247104763
1682096730099196700,4.01219677734375,4.977158297973871,11.530381671810149,11.398567309510707
1682096730119326500,4.032326416015625,6.067775606364012,12.851977481085061,12.736699243044853
1682096730139456500,4.05245654296875,5.854211181616783,13.686216474395989,12.80214465190172
1682096730159585500,4.07258544921875,5.742133785444498,14.276105444073677,12.667220633149146
1682096730179715600,4.092715576171875,4.374098881077766,14.023112679779528,11.115195773565768
1682096730199845600,4.112845703125,2.1056407388746736,13.688798892104625,6.722915339109301
1682096730219975400,4.132975341796875,-0.11763517642989754,13.456270239168404,1.7835118945121764
1682096730240105700,4.153105712890625,-0.5895147295378148,14.195925407421589,0.25512159301638604
1682096730260235500,4.173235595703125,2.530824299520254,16.161036562621593,1.2871750687569379
1682096730280365600,4.193365478515625,2.669205180728435,11.541837131804227,-3.1164690557569266
1682096730300495600,4.21349560546875,-0.7568027024090289,7.403601016521454,-20.693105991518497
1682096730320624600,4.233624755859375,-3.320926337201893,-0.03331745545119047,-33.766728327953814
1682096730340754400,4.25375439453125,-4.371117819440364,-3.098737291972339,-24.726442639434335
1682096730360884700,4.273884765625,-6.236642811250686,-4.339639269854128,-12.53820963783264
1682096730381014500,4.2940146484375,-7.1081462440729135,-5.374381838548183,-6.301979499036073
1682096730401144600,4.31414453125,-7.725831567692756,-5.795174470758438,-3.0813726079344748
1682096730421274600,4.334274658203125,-6.993183647853136,-6.623026393380761,2.0570295604407787
1682096730441404700,4.35440478515625,-5.573187085580826,-8.387217501351238,3.2025667920202014
1682096730461534500,4.374534423828125,-5.011861362564564,-10.413135884213448,2.8618507360875607
1682096730481664800,4.394664794921875,-4.02454339286834,-11.86630523276925,5.109318697232007
1682096730501794600,4.414794677734375,-2.4659283412396906,-9.906204599207639,8.331475740385056
1682096730521923600,4.434923583984375,-1.7499767046570778,-9.221737649691104,11.014163503021
1682096730542053600,4.4550537109375,-2.6206103689074514,-9.131765117821097,11.246759960496425
1682096730562183700,4.47518359375,-4.300425742101669,-9.926301630818843,8.19985076317787
1682096730582313500,4.4953134765625,-5.250899251264333,-11.061524973654747,4.284070235106348
1682096730602443800,4.51544384765625,-3.8863586187541483,-11.34382332741022,2.627645674371719
1682096730622573600,4.535573486328125,-2.4213845583751796,-9.897533801496028,3.729224521759152
1682096730642703600,4.55570361328125,-4.612425114376843,-8.458481825619936,-2.5747978812813757
1682096730662833700,4.575833740234375,-10.766852291494608,-6.7111980133086435,-11.052231075608729
1682096730682962700,4.595962646484375,-12.81134268835783,-6.281693082332611,-17.92958937293291
1682096730703092500,4.616092529296875,-8.6118884265244,-0.8119353915661572,-25.988441765880584
1682096730723222500,4.636222412109375,-6.79656685077548,2.4681790427759287,-30.43361617065668
1682096730743352600,4.6563525390625,-3.9800516324520108,5.687369929599762,-26.992276278352737
1682096730763482600,4.676482666015625,-3.1020974160552024,7.224871758311987,-13.309867379546164
1682096730783612400,4.6966123046875,-3.9219057329535483,8.246837555280328,-3.735058634740114
1682096730803742700,4.71674267578125,-3.8121886361718174,8.730041927739977,-0.2180605671226978
1682096730823871500,4.73687158203125,-0.7671183447182178,10.612806223642826,1.584365286695957
1682096730844001500,4.75700146484375,1.6785773558318613,13.09148415634036,6.406380953752994
1682096730864131600,4.777131591796875,2.4255495691001414,15.254910729229449,10.581370636415482
1682096730884261600,4.79726171875,3.5009283918261525,17.35757274455428,12.347636797094344
1682096730904391400,4.817391357421875,6.589038199061155,19.04277624052763,14.999659372353554
1682096730924521700,4.837521728515625,7.675365116780996,19.200108490443228,15.99759255182743
1682096730944651500,4.857651611328125,6.855644478166103,17.75685263313651,13.909700235611199
1682096730964781600,4.877781494140625,4.374262547206879,14.990587592625618,8.523702778071165
1682096730984910600,4.89791064453125,1.9975942056536673,13.37787299427986,1.637273870062828
1682096731005040600,4.91804052734375,2.5236288350582123,13.523795376908778,-0.29173195253312584
1682096731025170700,4.938170654296875,5.211806427282094,12.547822684830427,-2.981504704993963
1682096731045300500,4.958300537109375,6.00871317654252,4.4444510589376085,-10.570996541917323
1682096731065430500,4.978430419921875,4.786854045043885,0.457732077550888,-22.20825219603777
1682096731085560600,4.998560546875,-0.021457652439922092,-2.029494633913785,-32.44836960090399
1682096731105690400,5.0186904296875,-3.774596864402294,-5.190076826032996,-24.817291369616985
1682096731125820400,5.0388203125,-5.199831911849976,-5.634996183761954,-8.892735996949671
1682096731145949400,5.058949462890625,-12.013459787541628,-6.552814208513498,1.0395236654907465
1682096731166079500,5.07907958984375,-12.387231140857935,-8.39470873388946,3.387339422047138
1682096731186209500,5.09920947265625,-6.073862817323207,-12.125720723587273,2.9971868427723645
1682096731206339300,5.11933935546875,-3.003549363541603,-11.766156759321689,5.079341492119431
1682096731226469600,5.1394697265625,-3.9293700774848457,-9.441066629314422,9.039487816140054
1682096731246599400,5.159599365234375,-5.053657015764713,-7.742299887412786,11.3603851706326
1682096731266729500,5.1797294921875,-4.5197313408493995,-6.286911693763733,12.33559798425436
1682096731286858500,5.1998583984375,-3.6036733115077015,-7.090994033741951,10.746614974629878
1682096731306988500,5.219988525390625,-3.3672745391398666,-8.329121286213397,6.753620273974537
1682096731327118300,5.240118408203125,-3.83542221224308,-6.702394529128075,4.163991318786144
1682096731347248600,5.26024853515625,-6.037578036499023,-5.030384861248732,5.160454425707459
1682096731367378400,5.28037841796875,-9.311430195575952,-4.55512647935748,3.444438442841172
1682096731387508500,5.300508544921875,-8.871565198627113,-3.2115015013650057,-3.7097862463176248
1682096731407638500,5.320638427734375,-9.5480832349658,0.028944427998736498,-10.702941837120056
1682096731427767600,5.340767578125,-12.632546794652939,1.3555351960167288,-13.671808009815216
1682096731447897300,5.3608974609375,-9.702661217737198,2.1990188414044676,-14.096767114055156
1682096731468027400,5.38102734375,-2.0295038401335477,3.465695750403404,-14.784579866868256
1682096731488157400,5.401157470703125,-0.7941057203650475,4.8697392490014435,-10.926146196871995
1682096731508287500,5.42128759765625,-2.8863328509151933,5.717500279447436,-7.312845809841155
1682096731528417300,5.441417236328125,-3.6369057190239427,6.0635109346568585,-5.0529666954129935
1682096731548547600,5.461547607421875,0.30508024053648114,5.792001685941219,-0.648553924614191
1682096731568676400,5.48167626953125,3.1554069814383983,6.3387096855401985,2.1523276712477206
1682096731588806400,5.501806396484375,4.800341595387459,7.310496616366505,5.290682395598292
1682096731608936400,5.5219365234375,6.6317743479818105,8.89003375225365,9.513297752788663
1682096731629066500,5.54206640625,5.278014637205004,10.738791733658314,10.202537323534488
1682096731649196300,5.5621962890625,4.00470851932466,11.132989788931608,8.463246263542771
1682096731669326600,5.58232666015625,4.837701896488666,11.255452970039844,7.335712306165695
1682096731689456400,5.602456298828125,5.834619176918268,9.806621358427405,6.103409229803085
1682096731709586400,5.62258642578125,3.700222299158573,9.855541748940944,4.879069679665565
1682096731729715500,5.642715576171875,4.0632811198025935,11.547019502878188,3.132690122717619
1682096731749845500,5.662845458984375,7.133024664741754,14.339689735233783,-0.8827858743369579
1682096731769975300,5.682975341796875,2.701634455168247,10.710109244531392,-6.853732507064938
1682096731790105300,5.703105224609375,-3.5706852341413495,5.878090654376149,-14.89395677191019
1682096731810235400,5.7232353515625,-3.4029274518013,4.85077735890001,-19.59652655985355
1682096731830365400,5.743365478515625,-2.2149673750340937,2.0454685942456123,-15.704660575854778
1682096731850494500,5.763494384765625,-6.113720195937156,-2.754862479747832,-9.990623588603734
1682096731870624500,5.78362451171875,-9.092635468959807,-6.669621555817127,-5.1769537250876425
1682096731890754600,5.803754638671875,-9.354149393361807,-8.607339677178858,-2.348264084845781
1682096731910884400,5.82388427734375,-7.861673285812139,-10.10382092871666,1.418146550491452
1682096731931014700,5.8440146484375,-5.442297436910867,-9.852252059745789,7.577857513231039
1682096731951144400,5.86414453125,-6.059462536048889,-15.541905131846665,5.321258151125908
1682096731971274500,5.8842744140625,-7.468567117428779,-14.235567681980132,3.182591925483942
1682096731991403300,5.9044033203125,-6.205237619161606,-11.880030975782871,4.455882261273264
1682096732011533600,5.924533447265625,-3.06103358426094,-12.229815888833999,6.085303664270043
1682096732031663400,5.944663330078125,-3.3911586880743503,-10.613224741315841,6.202590904045104
1682096732051793700,5.964793701171875,-6.715956021490693,-8.37145177694261,6.511543455970287
1682096732071923000,5.9849228515625,-8.875476234591007,-7.803126988819241,6.325499490833282
1682096732092053200,6.00505322265625,-7.816403819021582,-7.042922369012236,3.5427830817371606
1682096732112183000,6.02518310546875,-7.312886726373434,-5.18555671826005,-2.938859741488099
1682096732132312000,6.04531201171875,-9.312873964643478,-0.7590154100224376,-13.412950152879953
1682096732152442000,6.065442138671875,-15.43057241656184,-1.0530913683984429,-20.964050592088697
1682096732172572200,6.085572265625,-11.548194391876459,1.850395519478619,-19.015104974269867
1682096732192702000,6.105701904296875,-1.9509744932979345,7.3684572224259375,-19.370504804593324
1682096732212832300,6.125832275390625,-1.7883019052676856,6.950755541968345,-17.7858881734848
1682096732232962000,6.145962158203125,-2.0148760337136684,6.971656875699758,-11.28470244539976
1682096732253092000,6.166092041015625,-2.374036824005842,7.623774630275368,-3.730474814081192
1682096732273221000,6.18622119140625,1.370412154892087,9.125653941464424,1.7105466115444898
1682096732293351200,6.20635107421875,3.5162387736827134,10.287351449728012,7.211338907521963
1682096732313481200,6.226481201171875,4.016019602411985,10.220900663220881,9.68872153971195
1682096732333611000,6.246611083984375,3.382853801065683,11.228686543667315,10.545745196282862
1682096732353741000,6.266740966796875,4.467655116653442,13.962191470348834,14.079223274058103
1682096732373871000,6.28687109375,6.4485857722759246,15.796106687408685,16.45578757071495
1682096732394001000,6.3070009765625,7.5414342007189985,14.559842890721558,16.337756234574318
1682096732414130200,6.327130126953125,6.991243619701266,13.515448404324054,12.454017442929745
1682096732434260200,6.34726025390625,3.646196109938621,12.313456295073031,6.591737521147728
1682096732454390000,6.36739013671875,1.7115478975415228,11.459273414885997,1.2512988687336444
1682096732474520300,6.387520263671875,4.084683388793469,13.009554061150551,-1.134126779770851
1682096732494650000,6.407650146484375,4.91656558984518,11.81082124595642,-7.203162030807137
1682096732514780200,6.4277802734375,0.658430152592808,5.920427574846149,-17.8635851611495
1682096732534910200,6.44791015625,-2.7867618850946423,4.163862723970413,-24.281899713802336
1682096732555039200,6.468039306640625,-5.113071327763795,2.9763249642685055,-21.89783366321325
1682096732575169000,6.4881689453125,-7.684171523571014,-0.42221104764081535,-13.387085059261322
1682096732595299000,6.508299072265625,-9.01808554714918,-5.011019066521525,-9.032213441222906
1682096732615429000,6.52842919921875,-6.180291393953562,-7.682615526300668,-6.187108672752976
1682096732635559200,6.54855908203125,-4.613250167024136,-10.259200875520705,-1.6912153036087751
1682096732655689200,6.568689208984375,-5.044903215944767,-12.489912932175397,2.4097709852099416
1682096732675819300,6.5888193359375,-6.477683271944523,-12.683062345403432,4.845406479516625
1682096732695948000,6.608947998046875,-7.3957275066673756,-13.316774090194702,4.627847432175279
1682096732716078000,6.629078125,-4.507147753608226,-13.467820391708612,5.536672587653994
1682096732736208100,6.6492080078125,-1.3299511112965643,-12.525608514934778,7.888419253918528
1682096732756338200,6.669338134765625,-0.8821147701423615,-11.354850917381048,8.899541585311294
1682096732776468000,6.689468017578125,-3.401327030867338,-10.577882209777831,7.475795315116644
1682096732796598300,6.709598388671875,-5.41412932704687,-10.42935753569603,5.133488677370548
1682096732816727000,6.72972705078125,-5.012790752369165,-10.387193633705378,2.2699913431197403
1682096732836857000,6.749857177734375,-2.623390355014801,-8.079826207393408,-2.9598867474257946
1682096732856987100,6.769987060546875,-5.890128882694244,-3.725157418450713,-7.5615212954580775
1682096732877117200,6.7901171875,-13.125960426437855,-4.483703749656677,-18.59511430609226
1682096732897247000,6.8102470703125,-7.574002006846666,-4.015447355481982,-28.56642879859209
1682096732917377300,6.830377197265625,0.47128242746498433,3.5339316667616365,-28.645827913999558
1682096732937507000,6.850507080078125,1.3130793253421782,8.577596865344047,-23.715056104147433
1682096732957636000,6.870635986328125,-2.95896320284009,7.59516345281899,-14.753565135401486
1682096732977766100,6.89076611328125,-4.410823222362995,8.310380345386266,-8.477293493595718
1682096732997896200,6.910896240234375,-2.7363176460146903,10.46342931664586,-1.6633178273797034
1682096733018026200,6.931026123046875,-0.49997196738719935,13.043061193954944,6.202816529494523
1682096733038156000,6.951156005859375,-0.2262766250704415,14.555462483680248,12.820334973108768
1682096733058286000,6.9712861328125,1.1953098550081251,16.28726757183075,16.057080513584612
1682096733078414800,6.991414794921875,1.9433552504658698,17.637202171361444,16.829845339757203
1682096733098545200,7.011545166015625,3.262042478817701,18.451091619604824,18.37228287130594
1682096733118675000,7.031675048828125,3.5218507683455944,17.513845840805768,19.518420406866074
1682096733138805000,7.051804931640625,2.3242925498887894,15.958504404020308,14.49997148260474
1682096733158935000,7.07193505859375,0.16079042754545808,12.8638771777153,6.248153216302394
1682096733179065000,7.092065185546875,1.4654571677207946,9.98949312326908,0.26295769346952436
1682096733199195000,7.11219482421875,5.715235257124901,10.895116267836093,-0.8436462886035442
1682096733219324000,7.132323974609375,5.9343105542480945,15.337912837564945,-3.702895902281999
1682096733239454000,7.152453857421875,1.4694947526738047,9.241996593865752,-14.332140050506592
1682096733259584000,7.172583984375,0.5082391527339816,2.3644462811008093,-32.098762382507324
1682096733279713800,7.1927138671875,-0.09070932171195745,-3.2466569858983156,-31.240338211488723
1682096733299844000,7.212843994140625,-0.4587412545934319,-2.061553759866953,-16.281268039155005
1682096733319974000,7.232973876953125,-2.771597049188614,-1.5267434110715985,-8.362119884973763
1682096733340104000,7.25310400390625,-7.612772174745798,-4.557745429684221,-5.445062809970975
1682096733360233000,7.27323291015625,-10.374127231383323,-7.443249720820784,-2.033225491005182
1682096733380363000,7.293363037109375,-9.361516707259415,-8.525372757109999,2.9994086104750632
1682096733400492800,7.313492919921875,-8.28187671995759,-10.385171187967062,3.2007395765930413
1682096733420623000,7.333623046875,-6.9238803945243355,-12.563566197407244,3.7509272350013254
1682096733440753000,7.3537529296875,-4.646005604678392,-12.700351333856583,8.024016057366133
1682096733460883000,7.373883056640625,-1.730391714221239,-11.034421862673758,10.802271979922056
1682096733481012000,7.394011962890625,-0.6119499217730016,-10.992406429243086,11.353252834534645
1682096733501142000,7.41414208984375,-1.4808207410693168,-11.926322771358489,8.271088783961535
1682096733521272000,7.43427197265625,-3.0816321356534955,-13.03913086876869,3.1020985850989815
1682096733541401900,7.45440185546875,-2.868995931667089,-12.733526458227633,0.5146025502860546
1682096733561532000,7.474531982421875,-0.009473949054349213,-11.17011745032072,0.7474649652212858
1682096733581662000,7.494661865234375,2.0376199265718458,-6.464984533891082,-6.35366526260972
1682096733601791000,7.514791015625,-6.374682331675291,-4.652609825249016,-15.20906784646511
1682096733621921000,7.534921142578125,-13.274880237317085,-0.29397797789424657,-24.45485740287304
1682096733642051000,7.555051025390625,-8.355252921813726,5.832167692112923,-27.020083153688905
1682096733662180900,7.575180908203125,0.2320820782124996,8.953826717728376,-25.264251877784726
1682096733682311200,7.595311279296875,-0.024130232650041578,9.81069606052041,-12.663939127260447
1682096733702441000,7.61544091796875,-1.2574176438748836,9.192319832026959,-5.3823623159080745
1682096733722570000,7.635570068359375,-3.7596868800401686,7.615638085570931,-0.6198416248708963
1682096733742699800,7.65569970703125,-2.934428481042385,6.839105431297421,3.240848884141445
1682096733762830000,7.675830078125,0.31246549194958056,6.627486879920959,8.524930274039507
1682096733782959900,7.6959599609375,-0.4793360065937042,8.20807673973143,13.882085083454847
1682096733803090000,7.71608984375,-2.185585797727108,9.601280572146177,16.066795267391203
1682096733823220000,7.736219970703125,-0.38353520696163174,10.614898812007903,17.411408379638193
1682096733843350000,7.75635009765625,2.771197236216068,10.943427002018689,18.00465835018158
1682096733863478800,7.776478759765625,3.696537473165989,10.000819988447427,15.678727677696942
1682096733883609000,7.796609130859375,2.2594261099636554,10.507706849789619,10.889726976013183
1682096733903739000,7.81673876953125,-0.574432018957287,10.748574292004108,5.78138852199018
1682096733923869000,7.836868896484375,0.9710755676865577,10.839892977786063,4.903227969366312
1682096733943999000,7.8569990234375,6.013362463653087,11.805318556886911,4.0519069083511825
1682096733964129000,7.87712890625,6.522607870820164,17.97172521787286,1.6201082157284021
1682096733984258000,7.897258056640625,-2.895115876829624,15.667039577990769,-9.179530493080616
1682096734004387800,7.917387939453125,-7.380605925381183,10.640097550672293,-23.01119121119976
1682096734024518000,7.937517822265625,-5.32647442446947,6.989579485881328,-21.33871041867733
1682096734044648000,7.95764794921875,-6.3797267555832855,1.4222754669897257,-17.767443000733852
1682096734064777700,7.97777783203125,-6.551234830367565,-4.152988570995628,-20.74625539790392
1682096734084906500,7.997906494140625,-5.062952082854509,-9.62738765782714,-16.6406671682477
1682096734105036500,8.01803662109375,-2.8015479508161545,-12.475405098873376,-7.722563505807519
1682096734125166300,8.038166259765624,-3.833058405721187,-13.245561788374184,1.5085516285598277
1682096734145296600,8.058296630859376,-7.1253884707748885,-13.05364104015827,6.636485594412684
1682096734165426400,8.078426513671875,-7.2231684615254395,-13.968983614706993,7.30584323760271
1682096734185556500,8.098556396484375,-3.8454467626512048,-15.50012000004053,5.722933994933962
1682096734205685500,8.118685546875,0.7806243805665523,-15.919568231904506,6.193910169461369
1682096734225815600,8.138815673828125,1.4217173947155475,-14.413375733691453,7.709459694084525
1682096734245945300,8.1589453125,-1.9003578202605247,-11.60811489983201,7.060984679925442
1682096734266075600,8.17907568359375,-5.236715243089199,-9.661098788771033,5.963045065823197
1682096734286205400,8.199205322265625,-6.724872902917862,-9.42154476724267,1.6187223143279552
1682096734306335500,8.21933544921875,-5.727963805794715,-7.1894608377128835,-0.9286153130978345
1682096734326464500,8.239464599609375,-4.5673944247782226,-2.5299767427802085,-4.16873529844284
1682096734346594600,8.259594482421875,-7.17952688819766,0.8948212531108408,-11.141425608843564
1682096734366724600,8.279724609375,-6.91818364418745,0.9437193587273359,-23.62893732509613
1682096734386854400,8.2998544921875,-3.073012775868177,1.858310530386865,-27.329786231720448
1682096734406984400,8.319984375,-1.701611025416851,6.123312784668803,-24.83367434914112
1682096734427114500,8.340114501953124,-5.791223102784157,10.286111094278096,-13.822158730280398
1682096734447243500,8.360243408203125,-7.715712324738502,10.298256290102005,-6.476134288936853
1682096734467373600,8.38037353515625,-6.863676977974176,9.414207848483324,-2.6367384968876837
1682096734487503600,8.400503662109376,-3.6391257331609723,8.84313346939087,2.871089104554057
1682096734507633400,8.42063330078125,0.08283953818492591,9.630970777010917,7.692734184733033
1682096734527763700,8.440763671875,1.0582616837084293,10.874039577537774,10.990601425647736
1682096734547893500,8.4608935546875,0.03949263695478439,12.377688236486911,13.011106551289558
1682096734568022500,8.4810224609375,1.352219933988899,13.555416842097044,15.455614503359794
1682096734588152300,8.50115234375,4.282540541321039,14.895955836772918,17.905253388577698
1682096734608282600,8.52128271484375,3.6915842346727845,15.206860691809654,17.85659194126129
1682096734628412400,8.541412353515625,2.315134699312597,13.04075350153446,13.251027068042754
1682096734648542500,8.56154248046875,2.366488162191957,11.314647501808404,8.824011420291662
1682096734668672500,8.581672607421876,3.1704958294987677,10.745181726956368,6.4520853048294775
1682096734688802600,8.601802490234375,4.381262781357765,13.794302755105495,0.4792576806604862
1682096734708931300,8.621931396484374,4.957905315971375,14.668388605636357,-8.72259570338726
1682096734729061600,8.6420615234375,0.9973863592460751,5.6109892852306364,-17.53704317651987
1682096734749191400,8.66219140625,-2.893797195446491,4.979882169979811,-27.54453022164106
1682096734769321500,8.682321533203124,-6.590984656953811,2.7701614634275433,-31.037085921919346
1682096734789451500,8.702451416015625,-7.501156550866365,-0.17951091010645032,-18.230463832342625
1682096734809581600,8.72258154296875,-6.926974853408336,-3.7581057483285663,-7.834952452147006
1682096734829710600,8.742710693359374,-6.54900663292408,-7.188788053017854,-5.043148481231928
1682096734849840400,8.76284033203125,-6.166301447045803,-11.8430880233109,-3.100760614493489
1682096734869970700,8.782970703125,-4.282396748936176,-15.078659843832254,1.1160820045143365
1682096734890100500,8.8031005859375,-2.635930687636137,-15.82502415433526,4.4105683708190915
1682096734910230300,8.823230224609375,-2.4472446835577486,-14.5174299824059,8.45625362817645
1682096734930359600,8.843359619140625,-4.196486059677601,-13.008576740550994,10.007440283370018
1682096734950489600,8.863489501953126,-5.850003793054818,-12.673153530329465,9.58441419301927
1682096734970619400,8.883619384765625,-5.944129352951049,-11.998735681140422,8.591043206894398
1682096734990749700,8.903749755859375,-7.1325909494996065,-11.190645859086512,5.731767874252796
1682096735010879500,8.92387939453125,-6.763917796105146,-10.366703803384304,2.6606922039270398
1682096735031009500,8.944009521484375,-3.3881250194668766,-7.837374710857867,3.213120334738493
1682096735051138300,8.96413818359375,-1.089654016315937,-7.162693242296576,-1.3869663993299006
1682096735071269400,8.984269287109376,-1.4021511089801788,-4.657456388497352,-8.694497736150026
1682096735091399400,9.0043994140625,-4.326781834107637,-5.218892001628875,-10.448186154806614
1682096735111529500,9.024529541015625,-7.474648483169078,-5.420910950011015,-17.563333802074194
1682096735131659300,9.0446591796875,-6.8083449668526645,1.0433214503385126,-24.686575908470154
1682096735151789300,9.064789306640625,-4.387736945807934,5.57271362285018,-26.07267137018442
1682096735171918300,9.08491845703125,-2.6876912700116633,6.834398276519775,-20.52183873975277
1682096735192048400,9.10504833984375,-2.2851449269793926,9.09572992784381,-14.040945273590086
1682096735212178400,9.125178466796875,-1.4226982224464415,12.107101363313197,-5.247883118313551
1682096735232308500,9.14530859375,-0.16719079610705376,13.052822709512709,2.719985519894957
1682096735252438300,9.165438232421875,-0.9998714540600776,12.85100834379196,8.675853825956583
1682096735272568600,9.185568603515625,-0.4766017593242228,13.371746035832166,11.060594414806365
1682096735292697300,9.205697265625,0.522147558838129,15.003127925246954,12.798625830125808
1682096735312827400,9.225827392578125,0.44316783788651226,16.27873939746022,14.117940834987163
1682096735332957200,9.245957275390625,0.3828314426064491,17.855467321145532,15.210201818931102
1682096735353087500,9.26608740234375,-1.0068415853336452,17.32104246453643,15.97278778091669
1682096735373217300,9.28621728515625,-1.1064283332452178,15.86209803971052,11.61909689709544
1682096735393347300,9.306347412109375,0.1405257842823863,13.461564838445186,5.376132481607795
1682096735413476400,9.326476318359376,1.853877516375482,12.294796018266677,-0.46504327734708784
1682096735433606400,9.3466064453125,3.554678978975117,15.188900672227144,-4.340891023480892
1682096735453736200,9.366736083984375,3.07500307290256,15.140830761063098,-7.124152206978201
1682096735473866500,9.386866455078126,3.763638540275395,6.208652396041154,-19.439146379142997
1682096735493996300,9.406996337890625,0.9330721463762223,1.8356933326482772,-30.786725844216345
1682096735514126300,9.427126220703125,-4.9948131971299645,3.3180577960282562,-25.5055565423727
1682096735534255400,9.44725537109375,-8.481990126979351,-0.14745923680737613,-13.914651136016845
1682096735554385400,9.467385498046875,-6.982448318827152,-3.845215291982889,-10.147594603991507
1682096735574515500,9.487515380859374,-6.104725573098659,-7.004245140093564,-6.60501142874062
1682096735594645200,9.507645263671876,-7.472153743743896,-9.198362619322538,-3.225723795723915
1682096735614775300,9.527775390625,-7.455034266638755,-13.03904085239768,-0.3685924893736839
1682096735634904300,9.547904296875,-4.970021285700798,-15.345256770586966,4.403153710648417
1682096735655034400,9.568034423828125,-4.002316071230173,-16.13914972498417,6.539844836825132
1682096735675164400,9.588164306640625,-5.22783518654108,-16.147721153974533,7.878859398412704
1682096735695294500,9.60829443359375,-6.90016867954731,-15.218726486170292,7.834737348091602
1682096735715424300,9.62842431640625,-8.541509652918577,-14.074487477707862,5.992087620434164
1682096735735553300,9.64855322265625,-9.082544283056258,-13.367681270611286,3.341421720480919
1682096735755683300,9.668683349609376,-8.397532559138536,-12.162770059043169,0.8127718423902988
1682096735775813400,9.6888134765625,-6.46784109236598,-10.43668510210514,0.42281566247045993
1682096735795943200,9.708943115234375,-4.4756282874897115,-8.138702174732089,-4.013614294835925
1682096735816073500,9.729073486328126,-5.121254634219408,-3.9329648871064182,-12.410704370903968
1682096735836203300,9.749203369140625,-9.243198955392836,-3.4653000290840863,-23.252509904313087
1682096735856332300,9.769332275390624,-6.103134504514932,-0.27806466170847416,-29.13908021774292
1682096735876462300,9.78946240234375,-0.09005977176204323,5.18087469792366,-28.745201311421393
1682096735896592400,9.80959228515625,1.6078421700038015,8.934574904769658,-23.54037992072105
1682096735916722200,9.82972216796875,-1.151898583304882,8.869229449155926,-15.241693520259856
1682096735936852500,9.8498525390625,-1.6039233891248703,9.618896892857551,-8.602496913322806
1682096735956982300,9.869982177734375,-1.5001684156179427,11.359575023293495,-1.1144850907117128
1682096735977111300,9.890111328125,-1.5317958721555769,14.64667244839072,7.018485846891998
1682096735997241300,9.910241455078125,-2.120550577106327,17.761857309556007,13.677943151569366
1682096736017371400,9.930371337890625,-4.032074372895062,20.05701991881132,17.378455373585222
1682096736037501400,9.95050146484375,-3.166524587780237,21.281609644317626,20.119390742528438
1682096736057631500,9.970631591796876,-0.9288803937748074,21.14452289457321,21.809273920750616
1682096736077761500,9.990761474609375,-0.07519771819487214,19.44098879213929,18.384627973616123
1682096736097890600,10.010890625,0.24416765280365943,16.70686777938604,10.131969164836406
1682096736118020600,10.0310205078125,0.9976870957583188,13.504169469940662,2.4746955850631
1682096736138150700,10.051150634765625,2.71469355096668,11.76464167858362,1.9110504791885614
1682096736158280700,10.07128076171875,3.3910566890046,13.91294550114274,4.159255522435903
1682096736178410500,10.091410400390625,4.573227953237295,16.917162388682364,-1.1498515876471995
1682096736198539500,10.11153955078125,3.065398501472175,8.915849161511659,-20.105109703719616
1682096736218669600,10.131669677734376,0.5546481449484825,1.760144170667231,-32.20208714790344
1682096736238799600,10.151799560546875,-2.195872506202757,1.502152282911539,-28.473786755251883
1682096736258929400,10.171929443359375,-3.646596215172112,0.6536479598175734,-20.21131265490055
1682096736279059700,10.192059814453126,-5.420743776750564,-3.220722041913867,-12.60962418422699
1682096736299189500,10.212189453125,-6.887519625854492,-4.923732412734627,-5.75423338856101
1682096736319318500,10.232318603515624,-9.143446787786484,-7.646601963633298,-3.5308453911840916
1682096736339448600,10.252448486328126,-9.568937806946039,-11.139198580443859,-3.953769774726033
1682096736359578600,10.27257861328125,-7.208850013315677,-13.171286591851711,1.2511200050354003
1682096736379708400,10.29270849609375,-3.8589951032713055,-13.268038993120193,5.970764261898398
1682096736399838700,10.312838623046876,-2.852890015518665,-12.693460989820956,8.039756062811612
1682096736419967700,10.3329677734375,-2.370208205628395,-11.064462780672311,9.809684837651252
1682096736440097500,10.35309765625,-2.5873440591216084,-10.906417414051294,9.739942023861408
1682096736460227600,10.3732275390625,-5.2397781377911565,-11.766261973261832,6.015801088976859
1682096736480357600,10.393357666015625,-8.479470837634802,-11.831256131219863,3.3848259779214858
1682096736500487700,10.41348779296875,-8.679918591177463,-10.665380460488796,3.209145001366734
1682096736520617500,10.433617431640625,-4.950007256197929,-9.084716366398334,0.452536262473464
1682096736540746800,10.453746826171875,-2.375336800688505,-6.240988146978617,-6.141545775973796
1682096736560876500,10.47387646484375,-6.643685150527953,-3.486703759379685,-16.4005993519783
1682096736581006600,10.494006591796875,-10.56154599200487,-1.123118990479037,-23.769662139081955
1682096736601136600,10.51413671875,-6.548895573765039,4.586276235380769,-23.123933793282507
1682096736621266700,10.5342666015625,-2.9616566797077652,9.277402253767848,-21.33587198038101
1682096736641395500,10.5543955078125,-2.4871383025288583,10.14675406151414,-13.074777351689338
1682096736661525500,10.574525390625,-0.5896283094475046,8.695840967452526,-6.579985708555578
1682096736681655600,10.594655517578126,0.4863081836938858,6.977765129446983,-3.3369840302944183
1682096736701785600,10.61478564453125,1.0916016432523727,6.398091264313459,0.3910802155137062
1682096736721915400,10.634915283203124,2.1264204920530316,7.461406139758229,5.851127828648686
1682096736742045700,10.655045654296876,-0.04486220116391778,9.441169505167007,11.176674616879223
1682096736762174700,10.6751748046875,-1.7393278848707674,10.90610644840598,14.508749832344055
1682096736782304500,10.695304443359374,0.07580547482967376,13.574646443223953,15.97912633628845
1682096736802434600,10.7154345703125,3.558888413363695,15.881601197081803,17.171223658990858
1682096736822564600,10.735564697265625,4.150935437858104,15.95861429413557,16.969460731196403
1682096736842694400,10.7556943359375,1.1016600959300995,15.110170249861477,13.078808214640617
1682096736862823400,10.775823486328125,-1.3633635515548288,13.881515759134292,8.750340034881233
1682096736882953700,10.79595361328125,-0.1504232011795044,13.575779246646166,5.047528888273239
1682096736903083500,10.81608349609375,4.575869992178678,16.494769335538148,3.3135166454672813
1682096736923213600,10.836213623046875,5.758733038067818,18.47594198322296,-0.6272118613779545
1682096736943343600,10.856343505859375,0.5377636456429958,13.767858984816074,-14.52214707405567
1682096736963472600,10.87647265625,-2.6173510748505593,10.253346304273604,-27.947441160202025
1682096736983602400,10.8966025390625,-3.3616087684631344,5.516083973133564,-28.588512035584447
1682096737003732700,10.916732666015625,-4.342901486520469,0.7470695361629128,-19.48800188772678
1682096737023862500,10.936862548828126,-5.740531026422977,-1.1328785332754254,-10.446509746026992
1682096737043992600,10.95699267578125,-11.00758295558691,-3.7313647486582395,-7.430988205140829
1682096737064122600,10.97712255859375,-14.682343481230735,-8.164001451161504,-8.67583804386556
1682096737084251100,10.997251220703125,-9.441334340339898,-11.659605433094502,-4.479508051532506
1682096737104381400,11.01738134765625,-3.6483985884189605,-14.646855988264083,-1.0926906075328588
1682096737124511200,11.03751123046875,-0.9655226097345352,-15.843019245231151,1.4717325947284698
1682096737144641300,11.057641357421875,-0.6321276904702187,-15.539282966649532,2.9587048441648482
1682096737164771300,11.077771240234375,-1.7116015274249017,-14.791990435385703,3.375472458642721
1682096737184900400,11.097900390625,-2.2295814451895652,-14.947449877166747,2.2670412611424924
1682096737205030100,11.118030029296875,-4.12289358472228,-14.426140522718429,1.917757867872715
1682096737225160200,11.13816015625,-8.022609697699547,-13.046568325293064,0.15985504639148712
1682096737245290200,11.158290283203126,-10.755109246730804,-10.32793597357273,-0.48081718506217
1682096737265420300,11.178420166015625,-8.597181855779885,-7.620574372929334,-2.32916833923161
1682096737285549000,11.198549072265624,-6.788581112718582,-3.338877588956058,-9.931849912595748
1682096737305679400,11.218679443359376,-8.836559936219453,3.49754780947715,-18.312447703546283
1682096737325809200,11.23880908203125,-9.58325976228714,6.480102023524045,-19.398359610724448
1682096737345939200,11.258939208984375,-2.2053274400293827,12.210246095967292,-18.882600876140593
1682096737366069200,11.2790693359375,2.5099860941529273,13.246535601842403,-19.519697002673148
1682096737386199300,11.29919921875,0.47533451586738223,10.891976216244696,-13.953743959999084
1682096737406328300,11.319328369140624,-1.1443757865846156,10.33720298361182,-8.190898225915431
1682096737426458000,11.3394580078125,-2.7818121537327767,9.730113288286327,-2.2019635165542364
1682096737446588200,11.359588134765625,-2.709991949146986,9.946576357084512,5.48285624179244
1682096737466718200,11.37971826171875,-2.6399837624192237,9.420228423947096,10.76324579143524
1682096737486848000,11.399847900390625,-1.6586803768374025,8.419502983406186,14.857418308585881
1682096737506977300,11.419977294921875,0.5925792316749692,9.167186559814214,18.961095151662825
1682096737527107300,11.440107421875,2.6777447532758116,11.527517514550686,23.499063575470448
1682096737547237000,11.460237060546875,3.354681307287514,13.441803322398663,21.768282569670674
1682096737567367400,11.480367431640625,1.6926389066711067,12.101095985418558,18.15634178055525
1682096737587497200,11.500497314453124,-1.0319473850175738,11.638711113625764,14.08721135020256
1682096737607627300,11.520627197265625,-2.763513988237083,11.608368582332133,10.9720931245327
1682096737627756000,11.540756103515625,-2.3287249793782827,12.795684515976905,10.778939035129547
1682096737647886300,11.56088623046875,3.034873891609907,16.88615817860961,4.817900632953643
1682096737668016000,11.58101611328125,4.008646443295478,19.06315968786478,-0.5957043779581784
1682096737688146200,11.601146240234375,-0.7952700879693031,19.29870798088312,-13.471511062920094
1682096737708276200,11.621276123046876,-7.310563836383819,19.535661464524267,-23.290917668640613
1682096737728406300,11.64140625,-7.6157473911643025,13.81188049737215,-23.395626581871507
1682096737748535000,11.66153515625,-5.128980844557285,6.255590088304877,-18.063470604634283
1682096737768665300,11.681665283203126,-3.6914661612510677,0.3841653215587139,-16.538497418105603
1682096737788795100,11.701795166015625,-4.031380837672948,-6.373931805568933,-15.742352885389327
1682096737808925200,11.72192529296875,-2.962060876594484,-12.515287027406691,-13.321398827385902
1682096737829055200,11.74205517578125,-1.4389362405419348,-16.080068590462208,-7.38288672979474
1682096737849184300,11.762184326171875,-3.3511236148059367,-18.0267719823122,-4.2902398636519905
1682096737869314300,11.782314208984374,-6.827728881758451,-18.208609727931023,-3.2800288018852473
1682096737889444000,11.802444091796875,-8.353208264243602,-17.85800765327811,-3.2413737847983835
1682096737909574100,11.82257421875,-6.110778881788254,-17.054318112009764,-0.6472142004430294
1682096737929704200,11.8427041015625,-5.644563638052344,-15.430288338923454,0.9996242013007401
1682096737949833200,11.862833251953125,-7.630124291563034,-14.03036542738676,0.2958072391480207
1682096737969963300,11.88296337890625,-9.561202244257926,-13.230042732203007,-2.406159808975458
1682096737990093300,11.90309326171875,-8.987868103539943,-11.4926157125175,-5.600252787160873
1682096738010223000,11.92322314453125,-7.213598669147491,-5.27226001920104,-7.783022358423471
1682096738030353400,11.943353515625,-6.6145221844077104,4.004941743558645,-13.351050453805923
1682096738050482200,11.963482177734376,-6.839317612743377,8.105134251651167,-23.354361674547196
1682096738070611500,11.983611572265625,-2.596286074990034,11.598543938410282,-29.1978597389698
1682096738090741800,12.00374169921875,3.1269115393161773,18.560266280072927,-27.521579554164408
1682096738110871600,12.02387158203125,2.048178583856672,18.821856192320585,-15.088622434920072
1682096738131001600,12.044001708984375,-1.3475392288267611,15.748284613525867,-6.479872306421399
1682096738151130600,12.064130615234374,-3.9197804113626478,12.775939366543293,-0.2951332854092121
1682096738171260700,12.0842607421875,-2.825058590263128,13.08344581131339,10.755908872675896
1682096738191390500,12.104390380859375,-2.98216287664175,12.188035433202982,16.06362949683666
1682096738211520800,12.124520751953124,-4.128273524194956,10.541358944022654,16.640559616219996
1682096738231650600,12.144650634765625,-2.884345184229314,9.3719176897645,16.862514268171786
1682096738251780600,12.164780517578125,0.08247574637383222,10.318439830952881,20.89886237286329
1682096738271909400,12.184909423828126,1.5132348179399966,11.89644435044527,22.450447671985625
1682096738292039700,12.205039794921875,0.7404977565571665,12.921585854840277,20.558471895623207
1682096738312169500,12.22516943359375,-3.2131077675178643,12.452780594611168,14.01607854335904
1682096738332299500,12.245299560546876,-5.147414326870441,11.11966853506565,9.842025264763832
1682096738352429600,12.2654296875,-1.4464040922045707,9.137126937115191,7.97950296190083
1682096738372558600,12.28555859375,4.177568593239784,10.01034418811798,5.3342625941276545
1682096738392688600,12.305688720703126,5.765518168163299,17.976987083923817,2.3923440495908257
1682096738412818700,12.325818603515625,-4.218482787430286,15.73898837739229,-5.267524807372689
1682096738432948500,12.345948486328124,-3.1559859503701326,13.335710261332988,-22.86870114110708
1682096738453078500,12.36607861328125,1.556177595348656,8.687876272183656,-26.754511478328702
1682096738473208600,12.38620849609375,-0.2973334258019924,5.834108889308571,-19.14542179148793
1682096738493338600,12.406338623046874,-5.302143116289377,1.6476573169112205,-16.358312700390815
1682096738513467600,12.426467529296875,-9.08817205981016,-3.4686738894313573,-15.62918009519577
1682096738533597400,12.446597412109375,-9.759365686255693,-7.2947285538703195,-12.033085694509744
1682096738553727700,12.466727783203124,-8.081357654744385,-10.092411061429976,-5.813798507207632
1682096738573857500,12.486857421875,-5.716811128139495,-13.213842123508453,-0.6806102740883827
1682096738593987600,12.506987548828125,-5.126074601721763,-15.020415744656324,2.5871879917770624
1682096738614116600,12.52711669921875,-4.537473918288946,-15.00884104219675,3.1098750643193718
1682096738634246700,12.54724658203125,-2.9832781444072722,-14.858406150579452,2.094431362596154
1682096738654376400,12.56737646484375,-0.6163187114417552,-15.505476558637618,3.335648397776484
1682096738674506800,12.5875068359375,-0.4285318481601774,-16.11234121303558,4.125964662730693
1682096738694636500,12.607636474609375,-3.265087837862968,-14.453762689137458,1.7377631197720764
1682096738714765600,12.627765625,-7.5516522278726095,-12.56118836236,-2.120472397303581
1682096738734895400,12.647895263671876,-6.689810941886901,-10.116227990347147,-4.568868588984012
1682096738755025700,12.668025634765625,-2.748746919476986,-6.859684108945727,-8.382316869828104
1682096738775155500,12.688155517578124,-6.296469795703888,-1.4970023528024554,-16.728163080871106
1682096738795285500,12.708285400390626,-9.095146574997901,2.3918489595502614,-25.81778475496769
1682096738815414800,12.728414794921875,-1.7050551745213567,9.586072481620311,-25.83915487525463
1682096738835544600,12.748544677734374,2.0481226158857346,12.550271831548214,-22.21373267327547
1682096738855674600,12.768674560546875,-1.3750667026996612,12.500498623597622,-13.268801209664344
1682096738875804700,12.7888046875,-3.4229370973899957,11.863556810843944,-6.184685244998335
1682096738895934500,12.8089345703125,-3.9629613814413545,10.561422073364257,-1.0633300730139017
1682096738916063500,12.8290634765625,-4.077547545564174,9.818315887874364,4.288547088259458
1682096738936193500,12.849193603515625,-3.4056969165146347,10.14022378296256,10.71024368456602
1682096738956323600,12.869323486328126,-3.2176527174711227,10.85811837030649,14.41567524280548
1682096738976453600,12.88945361328125,-2.569310097520053,11.321786852169037,15.74609616357088
1682096738996583700,12.909583740234375,-1.6262801823616027,12.573211977630853,18.32338060097098
1682096739016712700,12.929712646484376,0.5087850961789488,14.380692776751518,20.44009452252388
1682096739036842500,12.949842529296875,1.8565126871846616,14.735304671567677,22.24220824165344
1682096739056972500,12.96997265625,-0.47784050733894107,14.310913722604512,17.318792055261135
1682096739077102800,12.990102783203126,-3.2791941046267747,13.597895216864346,10.464590177118778
1682096739097233200,13.010233154296875,-2.618142517489195,13.157730360186099,8.412945232325791
1682096739117362000,13.03036181640625,3.90217052039206,14.646868847745656,4.680429852327705
1682096739137492000,13.050491943359376,6.26785744920373,14.89408770481348,-1.7892302721589803
1682096739157622000,13.0706220703125,0.5187766211003065,13.524789064121245,-17.33037727911472
1682096739177752000,13.090751953125,-6.483271301209927,9.549207855081558,-33.65631681916714
1682096739197881900,13.1108818359375,-0.8836872070908546,2.070157045300305,-30.74538845617771
1682096739218011000,13.131010986328125,1.913921358449757,-1.8160428757607936,-16.119235064202545
1682096739238141200,13.15114111328125,-0.1580707933232188,-3.4235473382428285,-9.13757584992647
1682096739258271000,13.17127099609375,-4.590052539049089,-5.84213145224452,-5.40034922349751
1682096739278401000,13.191401123046875,-7.793406974315642,-8.551298056483269,-1.479772108799219
1682096739298531000,13.211531005859374,-8.617795604741573,-11.114975993335246,1.201985094988346
1682096739318660000,13.23166015625,-8.449009063875675,-12.82646777677536,2.1557009470731017
1682096739338790000,13.251789794921875,-8.034004367417097,-13.34404320539236,3.236413532042503
1682096739358920200,13.271920166015626,-6.954503496325016,-12.82946988120079,3.6843390858501195
1682096739379050000,13.292050048828125,-3.8624621948599813,-12.695659961169957,5.390556143757701
1682096739399180000,13.312179931640625,-1.7884825225315988,-13.952619339883327,5.671020852345228
1682096739419308800,13.332308837890626,-2.864135047632456,-14.488209733140467,2.505042208009958
1682096739439439000,13.352439208984375,-4.666569084757566,-13.756696954810618,-1.3249421970933675
1682096739459569000,13.37256884765625,-4.815898060959578,-11.91710836828947,-2.856077997905016
1682096739479699000,13.392698974609376,-2.0185715272307396,-9.18416575166583,-5.97700812472403
1682096739499829000,13.4128291015625,-2.6777637502372262,-4.734242106536031,-12.535792055296897
1682096739519958000,13.4329580078125,-8.311655772149562,-0.6878484086483716,-24.825930603146553
1682096739540088000,13.453088134765625,-5.564307029032707,6.846727012217045,-31.192849315083023
1682096739560218000,13.473218017578125,2.1203613381445408,11.661018807023764,-27.02962021284103
1682096739580348000,13.493347900390624,2.614727740609646,11.807625080263614,-18.148271871346235
1682096739600478000,13.51347802734375,0.6103471627514809,11.620504425805807,-10.744543429052829
1682096739620607000,13.53360693359375,-2.447816638226807,10.902747785627842,-5.164169062316417
1682096739640737000,13.553737060546876,-3.9985365526914594,11.533220110106468,1.2420821275770664
1682096739660867000,13.5738671875,-3.555166177970171,12.94468615992069,9.560759761187434
1682096739680996900,13.593996826171875,-3.1912428494513034,13.346769415485857,14.847431167578696
1682096739701126100,13.614126220703126,-2.947894988597929,14.6638690823853,16.22159536848068
1682096739721256000,13.634255859375,-1.0381436093091965,16.286225953823326,19.994120687305927
1682096739741386000,13.654385986328125,1.9764472265981137,17.49115937722325,24.350216294181344
1682096739761516000,13.67451611328125,2.803316714054346,16.386291425162554,23.842096091651914
1682096739781646000,13.69464599609375,0.9530077038154006,14.573803611534833,17.08894051257968
1682096739801775900,13.71477587890625,-1.0963397776901722,13.018382679772376,9.984390247172117
1682096739821905000,13.73490478515625,-2.2466890857264397,11.192876394617556,6.868911956018209
1682096739842035000,13.755034912109375,2.2066145572304725,9.771168936774133,2.394318564534187
1682096739862165000,13.7751650390625,8.201687915477157,13.494222076421975,-2.645551333418488
1682096739882294800,13.795294677734375,1.0231401014447212,12.789175280213355,-11.046405730456113
1682096739902424000,13.815424072265625,-6.941379226335883,11.127337462258339,-29.928598610317707
1682096739922554000,13.83555419921875,-3.813521346080303,4.0040675910726184,-38.57155203719139
1682096739942684000,13.855683837890625,1.1953873041585088,1.674780886158347,-18.904826736474035
1682096739962814200,13.875814208984375,-1.0714902908548711,-0.02526741998642683,-8.495968967971205
1682096739982944000,13.895944091796874,-5.179539649927616,-3.5092665965825316,-8.108230464100837
1682096740003073000,13.916072998046875,-7.765942628806829,-8.08142370571792,-4.946329444468021
1682096740023202800,13.936202880859375,-7.661992424988746,-11.252498796409368,0.34553368534743784
1682096740043333000,13.9563330078125,-6.35817894064188,-13.339472244215012,3.659361296460032
1682096740063463000,13.976462890625,-4.331114310353994,-14.29336871356368,5.186147085368633
1682096740083593500,13.996593505859375,-2.9675054057359693,-14.589593885862826,4.17276499235034
1682096740103722200,14.01672216796875,-2.228269924199581,-15.303876127928495,1.5484598605781792
1682096740123852500,14.0368525390625,-2.2244940589226783,-15.665890407955645,1.8024007193773983
1682096740143982300,14.056982421875,-4.082463374656439,-14.589849906450508,3.5491052704960104
1682096740164112400,14.0771123046875,-6.972823581391572,-12.890166634225844,2.8176205492168664
1682096740184241400,14.097241455078125,-8.624099088799953,-12.176949391043186,0.23131460097134113
1682096740204371500,14.117371337890624,-6.225533388215303,-11.406346126818656,-4.913130354699492
1682096740224501200,14.137501220703125,-4.384207602638006,-6.940148807758092,-11.620920605391264
1682096740244631300,14.15763134765625,-10.590019222295284,0.9595832828134297,-19.337158999830482
1682096740264761300,14.17776123046875,-9.743919110798835,4.464464211657643,-29.577576848948
1682096740284890400,14.197890380859375,0.9247263428352772,9.206603793445229,-31.69072401793003
1682096740305020400,14.2180205078125,2.60543150447607,12.516776389181613,-27.47991717195511
1682096740325150500,14.238150390625,-1.5503601412415504,13.82500768997073,-16.700933713161945
1682096740345280500,14.258280517578125,-4.223475773411989,13.84487091282606,-8.021338362589479
1682096740365410300,14.278410400390625,-4.296869510924816,13.675053275346755,0.36565702044367787
1682096740385539300,14.298539306640626,-2.0684803442597386,13.687689469558,9.556803132516146
1682096740405669400,14.31866943359375,-2.716092019587755,13.442742064553498,14.939187075734138
1682096740425799400,14.33879931640625,-4.444874545046686,14.125677566719054,15.018616586279869
1682096740445929200,14.35892919921875,-3.79618267326653,15.461483103132247,16.458214505600928
1682096740466059500,14.3790595703125,-0.1726525686442852,16.57039010145068,23.164728745007512
1682096740486188300,14.399188232421874,1.962803462779522,18.736175804686546,25.94859607770443
1682096740506318300,14.419318359375,0.4033808941602707,18.817992502629757,20.51469120608568
1682096740526448400,14.439448486328125,-2.3461305799484253,18.393988507157562,13.644549416011571
1682096740546578400,14.459578369140624,-2.2710370527803896,15.963437768769264,9.860166486132144
1682096740566708200,14.479708251953125,3.161786161081493,14.246428098690508,3.4796120475530623
1682096740586837200,14.499837158203125,9.168082047349214,16.22491895994544,-0.4261199647128582
1682096740606967600,14.519967529296874,5.690625716525316,17.7503071570158,-9.793803962430358
1682096740627097300,14.540097412109375,-3.6097128839328882,14.140513901323079,-28.17925552738905
1682096740647227400,14.560227294921875,-7.11429015365541,6.302510244911908,-42.18158260877132
1682096740667356400,14.5803564453125,-2.7233143720567226,1.3623317242890596,-26.97760711700916
1682096740687486500,14.600486572265625,-2.835417194931209,-1.5477172255173324,-11.806378879594803
1682096740707616300,14.6206162109375,-7.733523875761032,-3.8583889540717005,-7.69294402809143
1682096740727746600,14.64074658203125,-12.200666951239109,-6.000714579004049,-4.89733715776205
1682096740747876400,14.66087646484375,-10.981177763742208,-10.062524457210301,-1.9100562074542045
1682096740768005400,14.68100537109375,-6.452354769420624,-13.516693435949087,0.14184826505780218
1682096740788135200,14.70113525390625,-1.94227753823176,-15.782742178922891,3.101138800156116
1682096740808265500,14.721265380859375,-0.9223873784936963,-15.350718543124199,4.40870549955666
1682096740828395300,14.741395263671874,-3.5919933951079845,-14.591836111831665,3.707331254380941
1682096740848525300,14.761525390625,-5.341369211262464,-14.533732297909259,1.413213770264387
1682096740868654600,14.781654541015625,-3.6991537931442258,-15.767283913028239,0.13271861766278742
1682096740888784400,14.801784423828124,-1.7291573501206934,-14.953613075971603,0.8453583532184362
1682096740908914400,14.82191455078125,-2.035588274613768,-12.943491397178173,0.9435223748505115
1682096740929044500,14.84204443359375,-3.996793508416414,-11.590747585445643,-4.389752377283573
1682096740949173500,14.862173583984376,-4.514968656492233,-7.513702728706598,-11.474757399743794
1682096740969303300,14.88230322265625,-6.6872881454110145,-1.643737805379927,-17.542949185693264
1682096740989433300,14.902433349609375,-10.134442861473559,4.23627709505707,-23.54398525173664
1682096741009563400,14.9225634765625,-6.20612492339015,13.5541554438591,-26.195797399115563
1682096741029693400,14.942693359375,-1.3414778829611838,15.682884797376394,-22.527335681354998
1682096741049822200,14.962822265625,-2.0548354113973675,13.800336190050839,-12.24330080882907
1682096741069952000,14.982951904296876,-3.5107834308862684,13.355191206872462,-5.744866425278783
1682096741090082000,15.00308203125,-3.8620214653551574,12.104593764406442,0.2740571796327829
1682096741110212000,15.023212158203124,-1.6018495054602622,10.458256297922134,6.1487821569681165
1682096741130341000,15.043341064453125,-0.9960182857632637,9.267916048020124,10.540383961510658
1682096741150471000,15.063470947265625,-2.414527824348211,9.852261412096023,13.840926559114456
1682096741170601200,15.083601318359374,-2.700550751584768,10.39955042645335,16.686700605148076
1682096741190731000,15.10373095703125,-1.1468073976457118,11.478976478743553,20.636182911813258
1682096741210861000,15.123861083984375,-0.16824878072738647,12.466685201323031,21.94867771526575
1682096741230990000,15.143989990234376,-0.6203650642231107,12.485351323348283,19.51406221165657
1682096741251120000,15.1641201171875,-1.6821631053641437,11.643839708685874,15.813595582348107
1682096741271250000,15.18425,-1.05083767118752,11.231689817136525,13.554356519389152
1682096741291380200,15.204380126953126,1.258888300949335,11.293436371475458,9.576081248959898
1682096741311509200,15.22450927734375,2.995623246717453,13.564285208207368,2.2681085981130598
1682096741331639000,15.24463916015625,3.739481127357483,16.506019043827056,-5.620127115932107
1682096741351769000,15.26476904296875,-1.8279890418812632,13.778189824694394,-11.845560550904274
1682096741371899100,15.284899169921875,-8.220411905169486,13.524230261194704,-26.16327226308584
1682096741392029000,15.30502880859375,-10.842076751565932,6.790333509343862,-36.11730127426386
1682096741412158000,15.325157958984375,-5.502611912620067,-0.3377504841253161,-22.559603627753255
1682096741432288300,15.345288330078125,-1.0149950811728834,-1.1777712757080794,-11.144973656713962
1682096741452418000,15.36541796875,-1.9422420285269617,-4.680802777293324,-6.8296379302501675
1682096741472548000,15.385548095703125,-4.428909206412732,-8.160188030353188,-4.532082288378477
1682096741492676900,15.4056767578125,-4.130909717917442,-11.516682816803455,-1.8806237767428158
1682096741512807200,15.42580712890625,-2.431523528943211,-15.019646513849496,0.4661380868464708
1682096741532937000,15.44593701171875,-0.9288368468940258,-16.117468639051914,3.1887808432519433
1682096741553067000,15.46606689453125,-1.6664076100885867,-15.17283216547966,4.600906818279624
1682096741573197000,15.486197021484376,-4.357469817838073,-13.85783327025175,3.654803194764256
1682096741593326000,15.506326171875,-6.610289076882601,-13.841016575485467,3.390422190493345
1682096741613456100,15.5264560546875,-7.1471245017647735,-13.140246141421795,2.7380267880201337
1682096741633586200,15.546586181640626,-7.159680031955242,-12.253894683557748,1.160595099979639
1682096741653716000,15.566716064453125,-7.754090862971544,-11.619143658846616,-3.005781068116426
1682096741673845000,15.586844970703124,-4.4630385627686975,-9.689242933237551,-7.372121005630492
1682096741693975000,15.60697509765625,-0.7045720183037221,-5.448081865531206,-10.90521329895854
1682096741714105000,15.62710498046875,-4.813628946983814,-1.9869205436870454,-19.62780549521446
1682096741734235100,15.647235107421874,-7.9967738301754,6.447672749084234,-29.2565363843441
1682096741754364000,15.667364013671875,-1.9262943716801701,12.550481090384721,-27.74075188192129
1682096741774494200,15.687494140625,2.030381207489967,12.784082925510406,-21.02564517073631
1682096741794624000,15.7076240234375,-0.6214028828382492,12.939417279607056,-14.220747713989018
1682096741814754000,15.727754150390625,-2.5292320618927477,12.226708570468425,-7.224245150846243
1682096741834884000,15.747884033203125,-2.3110521061740816,11.85899520201683,0.3810930745065212
1682096741855013000,15.76801318359375,-1.9999498288691042,12.2744990801692,9.40140214292407
1682096741875143200,15.78814306640625,-3.034965077024698,13.10515495429635,14.362757307088375
1682096741895273000,15.80827294921875,-2.986648497623205,12.745054398936032,14.676912103831768
1682096741915403000,15.828403076171876,-0.18355390188693999,12.30432021793723,17.57414044277072
1682096741935532000,15.848531982421875,2.254701127268374,13.514888432353734,22.360608995628354
1682096741955662000,15.868662109375,1.5853525441676377,14.464710784131288,23.855194058156012
1682096741975792000,15.888792236328126,-1.8140023098438978,13.800118747907876,19.155314239948986
1682096741995922200,15.908922119140625,-4.428045867581665,12.806875772076845,12.958618823683262
1682096742016052000,15.929052001953124,-4.223602614662051,11.921187162035704,10.82156704750061
1682096742036181000,15.949180908203125,-1.0398550894021987,11.552934864401816,9.655222005692124
1682096742056311000,15.96931103515625,3.3610160632669923,15.51582493417263,5.4090176831215615
1682096742076441600,15.989441650390624,2.415407822053134,18.243367737579344,-2.7990748387008906
1682096742096571600,16.009571533203125,-0.5637620102524757,13.343139534550904,-18.647632428836822
1682096742116700700,16.02970068359375,-2.0333350888594985,8.655125510704517,-35.08990351537466
1682096742136830500,16.04983056640625,0.02071253316104412,3.885841024620831,-28.263312113213537
1682096742156960800,16.069960693359373,-3.619916298039257,2.5483862596958873,-14.902287377882002
1682096742177090600,16.090090576171875,-6.787120977038144,-1.2325047364145516,-11.39307981801033
1682096742197219600,16.110219482421876,-9.630391515818237,-6.002004034292698,-8.96806742452681
1682096742217349600,16.130349609375,-10.532008931875229,-10.58771503700614,-7.078789801207185
1682096742237479700,16.150479736328126,-6.641997051310539,-16.24858391317129,-5.0718070049613715
1682096742257609700,16.170609619140624,-4.028368211853504,-17.92851268361211,0.5487187548995017
1682096742277739500,16.190739501953125,-4.419930073404312,-16.842915249210595,2.5185651219278573
1682096742297868800,16.210868896484374,-4.357347652763128,-15.68576298316121,3.2602064955621954
1682096742317998600,16.23099853515625,-3.870188112936914,-14.735397026026249,4.403418499064445
1682096742338128600,16.251128662109377,-5.649542010986805,-14.26598970825076,3.54573082562685
1682096742358258700,16.2712587890625,-7.271023268634081,-12.147427528482675,3.2026188144683836
1682096742378387700,16.2913876953125,-8.916395104956626,-10.482399390053748,2.341637944704294
1682096742398517500,16.311517578125,-7.481244228172302,-9.948140537661313,-2.2218284929752348
1682096742418647600,16.3316474609375,-3.098798374509811,-6.248749428629875,-9.38008579865098
1682096742438777600,16.351777587890624,-4.657987134373188,0.49637745002657174,-18.16946429697871
1682096742458906600,16.37190673828125,-10.222833092588186,6.786098063731193,-28.299856421756743
1682096742479036700,16.39203662109375,-3.6358781295418736,14.596894564265012,-29.708472342836856
1682096742499166700,16.412166748046875,2.0322119300484656,15.389527289468049,-23.879912319827078
1682096742519296800,16.432296875,0.04541632791534066,14.243193354552984,-11.583257521951198
1682096742539425500,16.452425537109374,-2.121524536705017,12.955029859280586,-4.740781737437844
1682096742559555600,16.4725556640625,-3.602284487497806,11.515456489878892,1.7920067511349915
1682096742579685600,16.492685546875,-2.3723779508829117,9.920760363304614,8.124388987219334
1682096742599815700,16.512815673828126,-1.3318214352130888,9.207003021895884,13.00599315379858
1682096742619945500,16.532945556640627,-1.8828513896644115,9.007854075992107,14.144974972385167
1682096742640074800,16.55307470703125,-1.157073940116167,8.787867509242892,15.005069706964491
1682096742660204500,16.57320458984375,1.2313422685064375,9.811549462479352,18.820064048206806
1682096742680334600,16.59333447265625,2.578241884255409,11.952757189297675,21.119035402095317
1682096742700464600,16.613464599609376,0.6976853275299072,13.11440676676631,19.48783939064145
1682096742720593700,16.63359375,-1.829203386107087,13.249700203353166,15.226825621473788
1682096742740723700,16.6537236328125,-2.5851860043048855,12.533277442127465,12.027953592318296
1682096742760853500,16.673853515625,-0.7033135426752268,11.55272443652153,10.613442183458805
1682096742780983800,16.69398388671875,0.7355719905927777,12.862690598279237,6.330586584839224
1682096742801112600,16.714112548828126,3.0324314668938515,16.982382172089814,0.5327537085264921
1682096742821242600,16.73424267578125,-0.04436258107870817,13.260636607909202,-9.20458719292581
1682096742841372700,16.75437255859375,-2.3713728654935955,11.693361572223901,-27.37847222895622
1682096742861502700,16.774502685546874,-4.8687753724053495,5.309982723873853,-34.60530447368622
1682096742881631500,16.794631591796875,-4.308431353902817,0.4387625886648893,-22.743498890423773
1682096742901761500,16.814761474609377,-3.6920620813176033,-1.6914257314890622,-14.43594880002737
1682096742921891600,16.8348916015625,-4.816387890303135,-4.940962364476919,-10.444597190403938
1682096742942021600,16.855021728515624,-6.054561904525756,-8.760276322484016,-5.455730334457755
1682096742962151400,16.8751513671875,-4.876483754825592,-11.749825217723846,-0.00566635519862175
1682096742982280700,16.89528076171875,-3.0559798080027103,-14.943408492821455,0.9594494273006915
1682096743002410800,16.91541064453125,-0.4476243789039552,-16.71332323913574,2.1773697580456735
1682096743022540500,16.93554052734375,0.6684149555124342,-15.361822120940685,3.545919041675329
1682096743042670800,16.9556708984375,-0.22623466735854744,-14.749682741010188,3.719674018603563
1682096743062799600,16.975799560546875,-1.9018074345469473,-15.87364351607561,2.560606274321675
1682096743082929700,16.9959296875,-3.4128140550434587,-15.29280645238161,0.707971159222722
1682096743103059500,17.0160595703125,-5.978353109592199,-12.265537190556525,1.351286014139652
1682096743123189800,17.036189697265623,-7.759640313792228,-9.903977570807934,0.15124737704396246
1682096743143318500,17.056318603515624,-5.485827951079607,-7.957339645409584,-5.238227985739708
1682096743163448600,17.076448486328125,-4.46174676939249,-4.5130809430494905,-13.089012797790765
1682096743183578400,17.096578369140627,-6.564716243231296,1.9379031225398182,-21.36245135974884
1682096743203708700,17.116708740234376,-4.672001631200313,8.398411095538735,-25.436975758099553
1682096743223837700,17.136837646484373,-1.2523767270982264,15.552279226344822,-27.036573685240743
1682096743243967500,17.156967529296875,-2.6170073759794232,15.046499449461697,-18.426306722438333
1682096743264097800,17.177097900390624,-4.633354212898015,13.386502875459193,-9.381572822338342
1682096743284227600,17.1972275390625,-5.108274741137027,11.647491801452636,-4.053479856756329
1682096743304356600,17.217356689453126,-2.4901170260787007,10.214495472353697,2.6355618543237447
1682096743324486400,17.237486328125,0.6540028376698493,9.37812472771108,10.172663578796387
1682096743344616700,17.25761669921875,0.4358392485640943,8.723867038497328,14.904882655072212
1682096743364746500,17.27774658203125,-3.021811873202026,8.961879091280698,14.471204822325706
1682096743384875500,17.29787548828125,-3.794841195529699,10.591397524911164,16.82095359277129
1682096743405005600,17.318005615234377,-0.0017968202888965605,12.360087113344669,22.668771273958683
1682096743425135600,17.338135498046874,1.7486442870095371,13.838708883064985,25.88654791007042
1682096743445265400,17.358265380859375,-1.6544028456486761,12.47036067496538,19.28893594393134
1682096743465395700,17.378395751953125,-4.830501755851507,10.980490365999936,11.913000348448753
1682096743485524700,17.398524658203126,-3.340255014789104,10.75983685977459,10.404219587308168
1682096743505654500,17.418654541015623,0.08136427800059318,12.213095055657625,7.999434573817252
1682096743525784600,17.43878466796875,6.291446414583921,15.980381889307498,2.547372114217281
1682096743545914600,17.45891455078125,0.6976388580396771,13.974835847866535,-10.688361523103714
1682096743566043600,17.479043701171875,-6.177054311728477,13.014955043411254,-30.820810484647748
1682096743586173400,17.49917333984375,-5.791579076614975,6.759033531194925,-36.81708620442152
1682096743606303700,17.5193037109375,-2.767178063702583,2.4279212666675445,-20.590209096145628
1682096743626433500,17.53943359375,-1.7105007265761494,-0.06711100398153066,-11.277101322746276
1682096743646562600,17.5595625,-1.9017291086137293,-2.77742297886312,-8.943239272740483
1682096743666692600,17.579692626953126,-3.6020460025668144,-7.112956274703144,-4.08188294441998
1682096743686822700,17.59982275390625,-5.7391047930121415,-10.613126541638374,-0.18995675466656683
1682096743706951700,17.61995166015625,-7.384428698539733,-12.874243088907003,1.192432838267088
1682096743727081500,17.64008154296875,-5.518667559885978,-14.827426490426063,2.1670237205982206
1682096743747211800,17.660211669921875,-1.7756734559714793,-15.933921751427649,3.6713854962527748
1682096743767340500,17.680340576171876,-0.15034502137675881,-15.522766716134548,5.317442976751924
1682096743787470600,17.700470703125,-2.8399443169668315,-14.837433505177497,4.0743993106663225
1682096743807600400,17.720600341796874,-5.948505083817243,-14.831599976718424,1.0712667112320662
1682096743827730700,17.740730712890624,-5.143042103135586,-14.398324295032024,0.7673194202482699
1682096743847860500,17.760860595703125,-2.730039880919456,-13.594122712588309,-1.144244853681326
1682096743867989500,17.780989501953126,-3.1119197218894956,-10.838580141621827,-4.860742580336332
1682096743888119800,17.801119873046876,-5.192106870555877,-5.591744486534595,-10.594029042458533
1682096743908249600,17.82124951171875,-6.328145036906004,-0.5417117987468838,-15.732468620234727
1682096743928379600,17.841379638671874,-5.123794966351985,3.177546332532167,-22.223456779432297
1682096743948508400,17.86150830078125,-2.405445523226261,11.98305412788391,-26.730377738547322
1682096743968638700,17.881638671875,-1.7537690826773642,12.70945701585412,-22.81460013308525
1682096743988768500,17.9017685546875,-2.438426586329937,12.271560104107856,-16.19095823815465
1682096744008898600,17.921898681640624,-2.134603798508644,11.128954249805211,-10.899658002918958
1682096744029027600,17.942027587890625,-2.5511586470186707,10.954440563464164,-4.082286849045754
1682096744049157600,17.96215771484375,-2.3064790991701183,11.084488500612974,5.503100572919846
1682096744069287400,17.982287353515623,-1.6437166164614259,11.7132434997797,13.9587474673748
1682096744089417700,18.002417724609376,-2.6421920861184596,11.179461617249249,17.603271844708917
1682096744109546800,18.022546630859374,-1.6058770074106752,10.962062728905677,17.733910148966313
1682096744129676500,18.042676513671875,0.9843370541892945,11.933457445544004,20.759238798117636
1682096744149806600,18.062806640625,0.9316120106957853,13.197410044145583,22.340433638083933
1682096744169936600,18.0829365234375,-2.905675557027757,13.519229091906547,21.302757646286487
1682096744190065700,18.103065673828127,-6.0558501907706255,13.161917875003814,15.775373695981502
1682096744210195500,18.123195556640624,-4.716939381818473,12.173943779486416,10.727744269943237
1682096744230325800,18.14332568359375,-0.6595113719582557,9.829843828582764,5.773195863184332
1682096744250455600,18.16345556640625,4.771922141110897,10.118902762514352,2.219641212064028
1682096744270584600,18.18358447265625,5.740088543352484,17.18393817913532,-2.894737106645107
1682096744290714600,18.203714599609373,-0.28352877233326435,11.577142253941297,-15.193690244591235
1682096744310844700,18.2238447265625,0.752759272237122,8.53171072795987,-34.35928154840469
1682096744330974500,18.243974365234376,1.263343819053471,4.81380430355072,-27.26728213701248
1682096744351103500,18.264103515625,-4.232691053263843,4.718078322720527,-11.513126585626601
1682096744371233500,18.284233642578126,-12.3012783660233,-0.4176397211372852,-8.068527399265765
1682096744391363600,18.304363525390624,-12.875202873849869,-5.953280043134093,-7.029083813273906
1682096744411493600,18.32449365234375,-6.219152747267485,-10.235932228136061,-7.104398289716244
1682096744431622400,18.344622314453126,-0.7347931151747703,-13.612433445304632,-2.842659128883481
1682096744451752700,18.364752685546875,-1.265087740111351,-15.269245544052124,1.3838929832339286
1682096744471882500,18.384882568359377,-3.872529999887943,-16.593533661150932,0.09867314019799232
1682096744492012500,18.405012451171874,-2.1209178029835223,-18.412764519298076,-1.2366191859960556
1682096744512141600,18.4251416015625,1.427399970396608,-16.83641653484106,3.3919986460298297
1682096744532271600,18.445271728515625,-0.5922330485858023,-14.04711197952628,5.884819085848331
1682096744552401700,18.465401611328126,-8.826877915638685,-11.08936341317296,3.3772400528371334
1682096744572531700,18.48553173828125,-11.69399870108366,-10.564688381683826,-0.9984469742149114
1682096744592660700,18.50566064453125,-4.535183761525154,-11.328153464591502,-4.35717697237134
1682096744612790500,18.52579052734375,0.6605049861054867,-8.68093039856851,-4.452918735292553
1682096744632920600,18.545920654296875,-4.016804030787944,-0.6139972827568649,-10.384396111941337
1682096744653050600,18.566050537109376,-9.513535653197765,6.504137563627958,-19.063890340226887
1682096744673179600,18.5861796875,-0.48850949313044545,6.572327887278795,-22.55312478712797
1682096744693309400,18.606309326171875,5.910145250284671,15.348118589758872,-18.974494731462002
1682096744713439500,18.626439453125,3.583511982488632,16.751611760997772,-13.219025663626192
1682096744733569500,18.646569580078125,-2.879975883103907,13.982961871176958,-9.849117853373288
1682096744753698600,18.666698486328126,-4.804372750599682,10.726963348698616,-3.19977219286561
1682096744773828600,18.68682861328125,-4.974972186106443,9.79443466154933,2.586305948245525
1682096744793958700,18.706958740234374,-3.8873619505777954,8.938888676315546,7.812495705667137
1682096744814088700,18.727088623046875,-2.510161742980778,7.300254039293527,11.135299819439648
1682096744834217500,18.747217529296876,-1.9412544787943362,6.4307999402165406,14.113856196022033
1682096744854347500,18.767347412109373,-1.971352387677133,7.357553551095724,17.646656228405234
1682096744874477600,18.7874775390625,-2.281558739055693,8.571843416383862,19.654408255457877
1682096744894607600,18.807607666015624,-1.3957766055122016,9.550426583221554,19.643220506489275
1682096744914736400,18.827736328125,-0.42572365887165065,9.199151723873614,16.39080861032605
1682096744934866700,18.84786669921875,-1.5666118956014512,8.43857301005721,9.152292942065
1682096744954996500,18.86799658203125,-3.8612794148162006,7.35325146998763,5.529267864355445
1682096744975126500,18.88812646484375,-3.050009501421451,9.557385316318273,7.045837964197993
1682096744995255600,18.908255615234374,1.0929846220433712,14.85268251223564,6.269999137407541
1682096745015385600,18.928385498046875,-2.5052128884017466,15.484975037878751,-3.7273698338031767
1682096745035515600,18.948515625,-7.60053345541954,13.77312318895459,-18.332215064811706
1682096745055645400,18.9686455078125,-6.7178387664973735,11.909627657145261,-19.86459063655138
1682096745075774000,18.98877392578125,-3.5074931571692227,9.23387115507722,-13.092500055384635
1682096745095904000,19.008904052734376,-7.0075126174569125,3.7797289665937424,-11.889673248875141
1682096745116033800,19.02903369140625,-10.633612864828109,-1.4805635514378548,-14.388581484174727
1682096745136163800,19.049163818359375,-11.834856786060332,-6.402382824027538,-15.192800602275133
1682096745156292900,19.06929296875,-9.890879604303835,-11.14680437927246,-10.82673422100544
1682096745176423000,19.0894228515625,-5.966739828687906,-14.359121580934524,-4.694822534817457
1682096745196553000,19.109552978515627,-3.0850562648832796,-16.657309675490854,-1.5849486395418644
1682096745216682000,19.129681884765624,-1.1585587718464434,-17.52272005213499,-2.126310017415881
1682096745236811800,19.149811767578125,1.806578151192516,-18.369703960728643,-2.2356991974174973
1682096745256941800,19.16994189453125,1.7635400967158377,-17.293122191953657,0.0034071780949831007
1682096745277072000,19.19007177734375,-2.5438275734782216,-15.12892638825774,0.6466062976777553
1682096745297201000,19.210200927734373,-5.793039796817302,-13.575511535620688,0.31227263625860213
1682096745317331000,19.2303310546875,-4.32375517976284,-12.463038953775166,-0.4216612317383289
1682096745337460700,19.250460693359376,-0.2515583475768566,-12.225178292161226,-3.3207243848890062
1682096745357591000,19.270591064453125,-2.5918904703795906,-6.254117093142867,-6.373716701513528
1682096745377719800,19.2907197265625,-10.203685324525832,3.6036154438406225,-13.062510575312375
1682096745397849900,19.310849853515624,-7.059039391076564,7.586684378287195,-22.320454679894446
1682096745417980000,19.33097998046875,2.943587939053774,9.337418623313308,-23.45830837123394
1682096745438110000,19.35110986328125,4.102317245161533,13.60173084950447,-24.162294844734667
1682096745458238700,19.37123876953125,-5.747468132209778,15.76586586292386,-18.871445860397813
1682096745478368800,19.39136865234375,-8.165141853368281,14.837178653633593,-9.362924235969782
1682096745498498800,19.411498779296874,-5.450269146442413,11.660156052714585,-0.6586468640834092
1682096745518628900,19.43162890625,-4.126190288180113,9.6950495736897,6.258510359665751
1682096745538758000,19.4517578125,-1.9059809208393095,7.93201991071403,13.067785300844907
1682096745558888000,19.471887939453126,-0.6504103661358356,6.2524237332284445,15.973244877034425
1682096745579018000,19.49201806640625,-0.6562428716816008,5.064168472906947,15.553470481956005
1682096745599147800,19.512147705078124,0.6524084080852568,5.545122436091304,18.354176721251008
1682096745619276800,19.53227685546875,1.8170635971106588,7.881601390597224,20.605226632535455
1682096745639406800,19.55240673828125,1.4742437007665634,9.12457959023118,18.661500795191525
1682096745659537000,19.572536865234376,-1.0944589323796332,9.956281758540868,13.714101675665377
1682096745679666700,19.592666748046874,-4.841357788647711,10.14848775343895,9.010563919472695
1682096745699796000,19.6127958984375,-3.1084608136072753,10.887267307901382,10.906246733659506
1682096745719925800,19.63292578125,0.9513533607371151,15.348824692201614,11.386174276405573
1682096745740055800,19.653055908203125,1.0455763896584511,20.78198137580156,6.14271365070939
1682096745760185900,19.673185791015626,-7.918010090062022,18.109550803285835,-5.489985655280948
1682096745780315000,19.69331494140625,-7.438230431354046,18.260820392161605,-16.25647495868206
1682096745800445000,19.71344482421875,-2.1135306153416633,12.777038267695904,-22.445631211614607
1682096745820574700,19.73357470703125,-0.7084659570023417,5.843496895378828,-20.073136356353757
1682096745840704000,19.7537041015625,-1.4473881348058582,0.7055237660706043,-18.150512928271294
1682096745860833800,19.773833740234377,-4.230485359913111,-5.049968098118901,-16.53232603599429
1682096745880963800,19.7939638671875,-7.388971602666378,-9.168207719555497,-14.348167640721798
1682096745901094000,19.814093994140624,-7.23573802024126,-13.047978192090987,-9.129368578073382
1682096745921223000,19.834222900390625,-4.437471575313806,-15.683173551189899,-3.022254648533463
1682096745941353000,19.85435302734375,-0.8804735057413577,-17.26803100531697,0.7049240466117859
1682096745961482800,19.874482666015624,0.5527016870558261,-18.351348804348707,1.5518027412652968
1682096745981612800,19.89461279296875,1.5918842840239404,-18.401616517817974,0.734286334696412
1682096746001741800,19.914741943359374,0.25300204357914624,-16.76903402044177,1.6767518939703703
1682096746021871900,19.934871826171875,-2.0709072791457177,-15.482274546748398,1.2734358817398548
1682096746042002000,19.955001953125,-5.251303740411997,-14.527134214818476,-0.7435521756917238
1682096746062132000,19.975132080078126,-5.059745395767688,-13.21608785660863,-1.7444097181797027
1682096746082261000,19.995260986328127,-3.8343466919660565,-10.869694241809844,-3.184021666026115
1682096746102391000,20.01539111328125,-3.8685903223514555,-5.628941706028581,-5.492251846647262
1682096746122521000,20.03552099609375,-6.696163525784015,4.4564919176042075,-11.998077509492635
1682096746142650000,20.055650146484375,-6.752548845350742,9.321265945413709,-19.838336251354217
1682096746162780200,20.0757802734375,-0.9541303511697798,12.054426588702201,-20.502208156609534
1682096746182910000,20.095909912109374,2.89146846023798,14.850171406197546,-21.36876887233257
1682096746203040000,20.1160400390625,-4.50066891298294,16.451866597878933,-16.05411932569146
1682096746223169000,20.1361689453125,-8.239362104833125,16.294654759472607,-8.744246394181252
1682096746243299000,20.156299072265625,-6.456387970459461,13.193455169039964,-1.1306278317391871
1682096746263429000,20.17642919921875,-3.141076842790842,10.388753138107061,6.3565235746502875
1682096746283559200,20.19655908203125,-1.1191665265262127,7.855000383919477,12.120779175531863
1682096746303688000,20.21668798828125,-2.23299534528628,5.772805402562022,11.99570084348917
1682096746323818000,20.23681787109375,-3.9721638018116354,5.504239221560955,12.239411400175094
1682096746343948000,20.256947998046876,-2.5681121199071404,6.394108332157135,17.55313857127428
1682096746364078000,20.277078125,-1.1608806389227508,7.817371787270903,22.53124496375322
1682096746384207000,20.29720703125,-0.6935013198435306,8.929811051368713,22.037840684318542
1682096746404337200,20.317337158203124,-2.5390496915519236,9.467989707553386,16.201459758424757
1682096746424467200,20.33746728515625,-4.737365206992626,9.250574452596902,12.706874598145484
1682096746444597000,20.357596923828126,-3.1924937262952326,8.876099334925412,10.91362223086357
1682096746464726000,20.37772607421875,2.4286919587790963,10.784876608484982,7.619953610682487
1682096746484856000,20.39785595703125,6.3998787322521205,16.247477997756004,2.9859850652784106
1682096746504986000,20.417986083984374,1.3460279474809764,12.087821493303775,-10.817475394272803
1682096746525115100,20.438115234375,-0.8656547067940235,11.55335688920617,-28.635381338787077
1682096746545245200,20.4582451171875,-0.732910077907145,7.587625458529591,-27.311843747794626
1682096746565375000,20.478375,-4.118824143326282,5.402159487789869,-16.985082663220165
1682096746585505000,20.498505126953123,-5.105889891827106,2.9000065714806316,-10.444557442915439
1682096746605634000,20.518634033203124,-4.623268287691474,-1.4936147561907767,-7.440596575963497
1682096746625764000,20.53876416015625,-4.942384506234526,-5.998741817626357,-3.9343782610356803
1682096746645894100,20.55889404296875,-6.1891574219763275,-11.17420442737341,-0.7604466118693352
1682096746666024000,20.57902392578125,-6.172351248604059,-14.714369435566663,0.6648486413329839
1682096746686153200,20.5991533203125,-3.792493755620718,-15.448455279254912,1.3107611115276814
1682096746706283000,20.619282958984375,-0.4827027065478265,-16.62074666224718,2.837250547838211
1682096746726413000,20.6394130859375,1.6347602798067031,-17.89562748209834,3.9123470464915036
1682096746746542000,20.6595419921875,-0.13584639429450035,-18.15418957095742,0.9868857157588005
1682096746766672100,20.679672119140626,-3.830078513127565,-15.286138226664065,-0.1085164888203144
1682096746786802200,20.69980224609375,-9.071499157428741,-12.62141048361063,-1.7214847696661948
1682096746806932000,20.719931884765625,-8.190121980845928,-11.713259866392612,-3.3601147305130956
1682096746827061200,20.740061279296874,-2.1277498409606515,-10.635326683008671,-5.258985527086257
1682096746847191000,20.76019091796875,-2.0986066024541854,-5.361872485587001,-12.208750888973475
1682096746867321000,20.780321044921877,-8.03306679430604,3.5709210887238383,-20.91691474690437
1682096746887451100,20.800451171875,-6.661377459084988,7.118111757770181,-25.348703600406644
1682096746907580200,20.820580078125,2.7195734319627283,13.633014461040496,-25.387422330379483
1682096746927710000,20.8407099609375,6.43557548405528,14.769008203727006,-18.945655590468643
1682096746947840000,20.860840087890626,0.4957119718551635,14.576723882895708,-12.847798149573801
1682096746967969300,20.88096923828125,-3.7927310715079305,14.30780172806382,-7.110738598653674
1682096746988099000,20.90109912109375,-4.067972492489218,13.074497950226068,1.802960691347718
1682096747008229000,20.92122900390625,-1.746063622866571,12.167069802063702,11.833626952004431
1682096747028359200,20.941359130859375,-4.486364201037586,9.63864964107573,13.017357428377865
1682096747048488200,20.96148828125,-7.267048519784212,7.457317993661761,10.930998897600173
1682096747068618000,20.981617919921874,-7.769645574977994,8.829450980997086,16.873610831725596
1682096747088747500,21.00174755859375,-7.281305593195557,14.63748142619729,26.019624839651584
1682096747108877600,21.021877685546876,-6.035695876014232,16.78965595270991,29.244874003601073
1682096747129006600,21.042006591796873,-6.5718509174168105,15.426121866893768,24.042039987325666
1682096747149136600,21.06213671875,-6.45092502887845,13.583123179668187,14.36531985105276
1682096747169266700,21.0822666015625,-3.9528900692820548,10.289808779752255,8.318433887982367
1682096747189396700,21.102396728515625,0.49082040042132136,10.25122916598916,4.507425401505827
1682096747209525500,21.122525390625,5.961543429088592,14.681317060792445,2.0177567037165165
1682096747229655600,21.142655517578124,3.298211232046783,15.978779130285977,-7.096662727028131
1682096747249785600,21.16278564453125,-1.8365584250450133,13.221207099318503,-29.492388628745076
1682096747269914600,21.18291455078125,-3.385888638716936,6.514850680822134,-39.45874871370792
1682096747290044700,21.203044677734376,-0.34650720655471084,3.402481461599469,-23.382442106127737
1682096747310174500,21.223174560546877,-0.09549480242282152,0.922858941528201,-11.462034696292877
1682096747330304500,21.243304443359374,-1.6503218599453569,-1.7952040858715772,-10.111178890264034
1682096747350433500,21.26343359375,-2.986581862127781,-6.785332340055704,-6.27982962654829
1682096747370563600,21.2835634765625,-2.2881064071334896,-11.74620118200779,-1.7858575808554886
1682096747390693600,21.303693603515626,-2.06420748924613,-15.386480761379003,-0.7518366044342517
1682096747410822700,21.32382275390625,-2.230619994457066,-18.530052343595028,-0.9151526049345731
1682096747430952400,21.343952392578124,-2.757785965979099,-17.905152850812673,-0.013396072667837142
1682096747451082500,21.36408251953125,-2.3835506484128532,-15.269886180043219,3.9692257025331257
1682096747471212500,21.384212646484375,-3.4736066696584222,-15.419865144586563,3.34099034332633
1682096747491341600,21.404341552734376,-6.023211657494306,-15.52065308498144,0.3414578142106533
1682096747511471600,21.4244716796875,-9.061109865361452,-14.52183143223524,-2.1464678393036127
1682096747531601700,21.4446015625,-10.904759709972142,-12.782371445417404,-3.469636596983671
1682096747551731700,21.464731689453124,-7.738603370982408,-9.763149880969523,-2.9641999344497916
1682096747571860500,21.484860595703125,-4.034630779379606,-6.807456493580341,-8.429114276838302
1682096747591990500,21.504990478515627,-9.129585435694455,-0.7945207309067249,-19.441385097980497
1682096747612120600,21.52512060546875,-11.091721374475956,7.035038337764144,-27.2867490540266
1682096747632249600,21.54524951171875,-2.672756735730171,14.424860419780016,-22.894707689023015
1682096747652379400,21.56537939453125,1.469343069243431,18.044345048403738,-18.479977522349355
1682096747672509700,21.585509765625,0.26386962068267167,16.354113495135305,-11.24977375535965
1682096747692639500,21.605639404296873,-1.152708803709224,14.899150833421945,-7.371934543147683
1682096747712768500,21.6257685546875,-4.391349291086197,12.831383605867623,-2.717360432088375
1682096747732898600,21.645898681640624,-3.9171453866839405,12.463991724455356,5.645487182638049
1682096747753028600,21.666028564453125,-2.107156988656521,12.988258759665488,13.93034437971115
1682096747773157600,21.68615771484375,-1.858424219894409,11.589983030813931,16.578702002722025
1682096747793287400,21.706287353515624,-1.0046762239933014,10.942850663435458,15.818647020518778
1682096747813417700,21.726417724609377,-0.22646219250410793,11.699566856604815,18.2643801304698
1682096747833547500,21.746547607421874,0.8656465234875679,12.744748109465837,22.03109062553644
1682096747853676500,21.766676513671875,0.3929018779829144,12.142538587397336,20.318796878063676
1682096747873806600,21.786806640625,-1.4693369317635894,11.207682334083318,14.30584591782093
1682096747893936600,21.8069365234375,-3.859381472240388,9.598110125416516,8.9052938652277
1682096747914066400,21.82706640625,-6.416521239495277,8.324403025519848,5.180193145400286
1682096747934195500,21.847195556640624,-2.9013550634801386,11.199294444966316,7.05125180594027
1682096747954325800,21.86732568359375,2.0544939044833184,18.17351503367424,3.8976153413057326
1682096747974455600,21.88745556640625,0.7726394462272524,14.760691626280545,-7.24771195115149
1682096747994584600,21.90758447265625,-1.9285303140386938,13.687620495975017,-28.332318429422376
1682096748014714400,21.92771435546875,-5.34557192364931,10.20080012447834,-27.62362772375345
1682096748034844700,21.9478447265625,-6.492111610269546,6.870833863991499,-17.817309732186793
1682096748054974500,21.967974365234376,-6.475695897519588,1.7578356014639138,-13.460433204066753
1682096748075103500,21.988103515625,-6.232834066617489,-3.640788697937131,-11.94747077332735
1682096748095234000,22.008234130859375,-3.3931554148495193,-10.032422748935222,-12.683837421429157
1682096748115364400,22.0283642578125,1.6894786890745161,-15.326502970278263,-7.25578653653562
1682096748135493400,22.048493408203125,3.3975334838032722,-19.828637864160537,-0.1466279005497694
1682096748155623200,22.068623046875,-0.6875415346562862,-19.88557029621601,-2.672622295695543
1682096748175753200,22.088753173828124,-4.241550359284878,-19.393475345814227,-4.268950991907715
1682096748195883300,22.10888330078125,-2.9557085849583147,-19.068740702867508,-2.8796348145812747
1682096748216012300,22.12901220703125,-4.306705845284462,-16.700709256756305,-0.10104337646067142
1682096748236142000,22.14914208984375,-10.504819311654567,-12.693415397113561,0.6366372768491506
1682096748256272400,22.1692724609375,-15.935965239953994,-11.595850461542605,-2.4438076948463916
1682096748276401400,22.1894013671875,-9.180365190339089,-10.14893666625023,-4.518505013924837
1682096748296531200,22.20953125,0.04486673120856285,-8.056025645089148,-6.0312412346929305
1682096748316661000,22.229660888671877,-2.763406728470325,-0.18691957892775535,-13.045296405661105
1682096748336791300,22.249791259765626,-11.80767184201479,13.022912724417447,-23.896774607300756
1682096748356920300,22.26992041015625,-6.932564051717519,15.611729778701067,-22.933816879618167
1682096748377050000,22.290050048828125,2.040399912679195,20.433935999894143,-22.726248480415343
1682096748397180400,22.310180419921874,1.730451335453987,17.491975369781255,-12.710544226568937
1682096748417309200,22.33030908203125,-0.875577550393343,15.220357302242517,-7.039480119603872
1682096748437439200,22.350439208984376,-3.6883915761113166,13.294711895990371,-2.756672451779246
1682096748457569000,22.370569091796874,-5.464164400804043,11.695947497063875,3.656509414160251
1682096748477699300,22.39069921875,-4.867510467036068,9.96698435434103,8.100945567789672
1682096748497828400,22.410828369140624,-3.491550322628021,8.9758100014776,11.893079842448234
1682096748517958100,22.430958251953125,-3.0701588477417823,9.497996723282336,16.717307340335847
1682096748538088400,22.45108837890625,-2.298546990996599,9.20744141331315,17.68615120344758
1682096748558218200,22.47121826171875,0.05482566903457045,10.567425113171339,18.620427611047027
1682096748578347300,22.49134716796875,1.4124560837648807,10.971047999393939,21.432355501580236
1682096748598477000,22.51147705078125,0.10395590290650725,11.35137768831253,19.721698415398595
1682096748618607400,22.531607421875,-2.6158544065520166,11.394082857573032,14.931120673656462
1682096748638736100,22.551736083984373,-4.5454164017260075,10.33511624046564,12.034544661146402
1682096748658866200,22.5718662109375,-2.4358985291570425,10.436920079904795,11.671190656948088
1682096748678996200,22.591996337890624,-0.005526069945096969,12.761235133886336,6.245448048996925
1682096748699126300,22.612126220703125,0.43722266574651003,15.441043541693686,-5.880303654250502
1682096748719255300,22.63225537109375,-2.623537362270057,12.236653625899553,-14.546343942201137
1682096748739385000,22.652385009765624,-3.5934257659986613,13.188027298772335,-22.269175743556023
1682096748759515400,22.672515380859377,-5.789684641170501,8.999481968966126,-26.524331434345243
1682096748779644200,22.69264404296875,-6.75943451321125,2.0962503947168587,-23.04746430158615
1682096748799774200,22.712774169921875,-4.669318967987596,-1.222707565021515,-17.516089235818384
1682096748819904000,22.732904052734376,-2.8355019506052135,-3.993660471087694,-11.502885762119293
1682096748840033300,22.753033203125,-3.731180624262988,-8.040392607149482,-5.398780366745591
1682096748860163300,22.773163330078123,-5.807657520234584,-11.512088474750518,-2.525470079010725
1682096748880293000,22.793293212890624,-5.045875860369205,-14.436901570707558,-1.0130857404202223
1682096748900423200,22.813423095703126,-2.302995202577114,-17.27512125583887,0.44653146910071373
1682096748920552200,22.83355224609375,0.7519077699743211,-18.367185840427876,0.9062117581099272
1682096748940682200,22.85368212890625,-0.27872692500948903,-16.539907284903524,2.540333301621675
1682096748960812000,22.87381201171875,-4.957599026501178,-15.717834530204534,1.5389064348131418
1682096748980941300,22.89394140625,-7.641641710877418,-15.234251387560366,-1.0998849029511213
1682096749001071000,22.914071044921876,-5.692603738600015,-14.357197334873675,-2.991784106945991
1682096749021201200,22.934201171875,-2.85284325376749,-13.090631923425196,-5.356255230227112
1682096749041331200,22.954331298828127,-3.4968531052112577,-8.40086082677841,-7.099400043037534
1682096749061460200,22.974460205078124,-6.189760648566484,-4.157942686271667,-12.827937264806032
1682096749081590000,22.994590087890625,-6.968459540963172,-0.6338245575159788,-22.828324707055092
1682096749101719800,23.0147197265625,-4.789277765059471,9.405793071359396,-29.702507881474492
1682096749121848800,23.034848876953124,-4.17121600934267,18.573657676565645,-30.611600747978684
1682096749141978600,23.054978515625,-3.6841362567543983,18.163399297851324,-21.942332145631312
1682096749162109000,23.07510888671875,-3.14061390145421,16.89398960288763,-12.958857308614252
1682096749182238700,23.09523876953125,-2.694002937376499,15.36680926170349,-5.375329933053255
1682096749202367700,23.11536767578125,-2.6062825683474538,14.273220244026183,2.521818570765853
1682096749222498000,23.135498046875,-2.8758851066589353,12.718360453277825,7.805680180433392
1682096749242627800,23.1556279296875,-0.7647709048092365,11.91369592949748,14.292525832998752
1682096749262756900,23.1757568359375,1.76834720473662,13.16136608633995,20.00951933196783
1682096749282886700,23.19588671875,1.7647604322910309,14.036715673196316,23.21937920360565
1682096749303017000,23.216016845703123,0.47229120264872904,14.605087223070859,25.714541822636125
1682096749323146800,23.236146728515624,-0.8176688206516206,15.610254445451497,26.444057874190804
1682096749343275800,23.25627587890625,-3.867852363465726,16.005042867833374,22.883989895653723
1682096749363405800,23.27640576171875,-5.083325008797646,15.14107041503787,17.558968592602014
1682096749383535900,23.296535888671876,-3.4355879046484827,13.37274556826353,13.671147500079869
1682096749403665000,23.316664794921873,-1.0063903344348073,12.339976053208112,9.227381793057917
1682096749423794700,23.336794677734375,3.7664568125665188,14.642724587547779,0.49942953107357024
1682096749443925000,23.356925048828124,5.587596719205379,16.980683551478386,-6.787677441877126
1682096749464054800,23.3770546875,-1.6135709229141473,15.468655186718701,-23.06363217705488
1682096749484183800,23.397183837890626,-8.349270924794673,12.697578362011908,-41.2569110648632
1682096749504313900,23.41731396484375,-6.618043344271182,4.633928797915577,-29.772077676784992
1682096749524444000,23.43744384765625,-4.338721278226376,1.3912947839230299,-14.085216961514949
1682096749544573000,23.457572998046874,-3.3688474875450134,0.1930781015574932,-9.308515769433974
1682096749564702700,23.47770263671875,-3.3220299145296215,-3.287839767897129,-7.322612001574039
1682096749584833000,23.4978330078125,-3.573935175848007,-6.684277857679128,-3.9495898586928844
1682096749604961800,23.5179619140625,-5.323372951322794,-9.842785143220423,-1.0098574260234832
1682096749625091800,23.538091796875,-5.840208375227451,-14.549376441764831,-0.6936772609323263
1682096749645222000,23.558221923828125,-4.426925339119136,-18.06170417948365,-0.42149815013110636
1682096749665352000,23.57835205078125,-2.5857424691438675,-18.30643063521385,1.2041571783304215
1682096749685481000,23.59848095703125,-3.1064626255273815,-17.329594019782544,1.27484341045022
1682096749705610800,23.61861083984375,-5.942049624067544,-16.29330685199499,0.5426332975059748
1682096749725740800,23.63874072265625,-8.7256539219141,-14.974215134495497,0.34419863735139367
1682096749745869800,23.658869873046875,-9.100850339597462,-13.850620270133017,-1.0410837544143199
1682096749765999900,23.678999755859376,-6.791431241452694,-13.908063574320076,-4.608624260789155
1682096749786130000,23.6991298828125,-4.12772524266243,-10.728878242409229,-9.578868833851814
1682096749806259000,23.719259033203127,-6.361017378938198,-3.6049674429714678,-14.94686769336462
1682096749826388700,23.739388671875,-9.039848466145992,-0.06477145511806011,-25.23220604970455
1682096749846518800,23.759518798828125,-4.699448441052437,6.920628699252009,-31.626225534534452
1682096749866648800,23.77964892578125,-0.6085247330972925,16.48293861249089,-32.41245423791408
1682096749886777900,23.79977783203125,-0.521808609207347,18.757412653982637,-22.68608247424364
1682096749906908000,23.819907958984373,-2.3392425740003584,16.764094810473917,-12.314917599797248
1682096749927037700,23.84003759765625,-2.9248060816943644,13.862429950392245,-4.147927488213777
1682096749947167000,23.8601669921875,-2.1481823881365356,12.431025858920812,5.093977920237183
1682096749967296800,23.880296875,-1.4430162033319471,13.402172738277912,12.66854048357606
1682096749987426800,23.9004267578125,-3.2166496779084204,15.107403123235702,17.283747629886864
1682096750007555800,23.920555908203124,-5.096621712744236,15.37663975084424,19.858857645857334
1682096750027686000,23.940685791015625,-3.4023405918240543,15.279228008884191,23.79613396642208
1682096750047815700,23.960815673828126,-1.1533316848479211,16.306146459823847,27.940052803516387
1682096750067945700,23.98094580078125,-1.590757471951097,17.096906376892328,25.770281830036637
1682096750088075000,24.001074951171876,-4.602554877747595,16.50893580805659,18.430384347140787
1682096750108204800,24.021204833984374,-5.847250110432506,13.705347875845431,11.446226886308192
1682096750128334800,24.0413349609375,-2.84534617601037,11.770550025844573,8.517584002929926
1682096750148463600,24.061463623046876,2.9894276069477197,12.530782702702282,7.865798256787658
1682096750168594000,24.081593994140626,6.186682556295395,18.227742298424243,1.7036749722093343
1682096750188723700,24.1017236328125,0.732143477448821,16.12409244110584,-12.476605706834793
1682096750208853800,24.121853759765624,-3.2936221506908536,13.052609943544864,-33.0673034632802
1682096750228983000,24.141983154296874,-3.554652967751026,8.865426549741626,-36.78334760094881
1682096750249112800,24.16211279296875,-3.111642658513784,3.8321477206170558,-22.985123873007296
1682096750269243000,24.182242919921876,-3.911480492790043,0.18680209002792833,-14.744226813691853
1682096750289371600,24.20237158203125,-5.524559540534019,-3.2461504976809024,-9.428596439319849
1682096750309502000,24.222501953125,-7.170460953688621,-6.844466666069627,-5.023600900197029
1682096750329631700,24.2426318359375,-7.709587704378366,-11.964670914453267,-3.691876495617628
1682096750349760800,24.2627607421875,-5.513849930471181,-16.776727497553825,-2.6776754874318835
1682096750369890800,24.282890869140626,-1.2746622086644173,-19.27310124593973,0.5841419504582882
1682096750390020900,24.303020751953124,1.3975931534148751,-18.269516908836362,3.2872862256675957
1682096750410150000,24.32314990234375,-0.857910084016621,-17.338707885086535,3.3597137484967705
1682096750430279700,24.34327978515625,-4.319395815509558,-16.235996818798778,1.993985952028632
1682096750450410000,24.363409912109375,-7.243456047272682,-15.604333238708971,-1.215226853877306
1682096750470539800,24.383539794921877,-8.960929827731848,-14.425226330482959,-3.9849300521433353
1682096750490668800,24.403668701171874,-8.22337075497508,-12.33397535148859,-4.4166450603842735
1682096750510798800,24.423798828125,-6.000864216607809,-8.353404079076647,-6.070317107540369
1682096750530929000,24.443928955078125,-2.393942132437229,-3.7008717029780147,-11.097622707474232
1682096750551058000,24.464057861328126,-3.3331133263409134,1.0510638811588287,-18.568142128014564
1682096750571187700,24.484187744140623,-5.951888296514749,9.938181453704834,-27.89248441213369
1682096750591318000,24.504318115234376,-4.171302518582344,20.264452708935735,-28.66577881513834
1682096750611446800,24.52444677734375,-0.4572761504769325,20.49851865444183,-22.506678677773476
1682096750631576800,24.544576904296875,-2.423832243788242,18.063811965417862,-11.698911023044586
1682096750651707000,24.564706787109376,-4.990815067404508,15.283728827434777,-2.857687771189213
1682096750671836000,24.5848359375,-6.622351270598172,11.898092702174186,3.363247767841816
1682096750691965700,24.604965576171875,-5.313378796052932,10.071992542779444,9.49069838296771
1682096750712095700,24.625095703125,-3.4633015487432477,8.519373808956146,15.51843423988819
1682096750732225800,24.645225830078125,-3.393495606589317,7.089256834685802,15.506456217324732
1682096750752354800,24.665354736328126,-2.1358163891687987,6.585369155159592,16.298441292273996
1682096750772484900,24.68548486328125,0.8025216665327548,8.118889805281162,22.732159165763854
1682096750792615000,24.705614990234373,1.1068602949216961,10.847502283746003,26.668981897342203
1682096750812744000,24.725743896484374,-1.908247988988459,12.479079403471946,23.706487013244626
1682096750832873700,24.745873779296875,-4.202078765118122,12.064829909294843,16.614211707520482
1682096750853003800,24.766003662109377,-2.300874849422276,10.192622663241623,12.747870625400543
1682096750873133000,24.786133056640626,1.7242806839950382,9.991059641933441,10.207779315841197
1682096750893262800,24.806262939453124,5.06076830907464,12.862604089039563,8.346491523209213
1682096750913393000,24.826392822265625,3.799910753878951,19.950611215925214,1.9692296964347362
1682096750933523000,24.84652294921875,-4.606935284788906,18.32997050075531,-16.374298205029962
1682096750953652000,24.86665185546875,-2.703049582663178,14.360101239621638,-36.96479254785776
1682096750973781800,24.88678173828125,-0.3599161387041211,9.289646233791112,-30.5730433460474
1682096750993911800,24.906911865234374,-3.9652746268197894,4.694452532461285,-17.46223372699022
1682096751014040800,24.927040771484375,-9.301259514695406,1.751938067857921,-10.28669912329912
1682096751034171000,24.9471708984375,-12.193925075763463,-1.5165806212365627,-4.646124847143888
1682096751054300700,24.96730078125,-11.695498584252595,-7.389032392942905,-3.435038746333122
1682096751074429700,24.9874296875,-7.340697108840942,-11.828843224859236,0.23496727825999258
1682096751094560000,25.00756005859375,-5.331505988895893,-13.969264185214042,3.876225347274542
1682096751114689800,25.027689697265625,-6.661611267840862,-14.670003055095671,3.382079894083738
1682096751134818800,25.04781884765625,-7.247531333887577,-16.230730276572704,0.5160363824814558
1682096751154948900,25.067948974609376,-6.937802536892891,-15.267500161689519,3.0437761599898336
1682096751175079000,25.088078857421873,-7.973921362376212,-13.703217878079414,4.539287689712643
1682096751195208700,25.108208740234375,-11.264538778293133,-12.689890730118751,1.515789178597927
1682096751215337700,25.128337646484376,-9.3683357396245,-14.362116671097278,-4.731041264668106
1682096751235468000,25.148468017578125,-4.704833056700229,-13.886930769920347,-6.679317604923248
1682096751255597800,25.168597900390626,-1.778533959969133,-9.533104277020692,-6.740353380644321
1682096751275726800,25.188726806640624,-3.933681510943174,-2.725858795842528,-13.035525537753104
1682096751295856600,25.208856689453125,-5.199509255766868,1.1882318794459104,-25.58954064748287
1682096751315987000,25.228987060546874,1.8087912971973419,6.5960103761613365,-28.10172220585346
1682096751336115700,25.24911572265625,4.656850823819637,15.476404777932165,-26.76237212870121
1682096751356245800,25.269245849609376,-0.7905310767486691,19.770120208740234,-21.885077057492733
1682096751376375800,25.289375732421874,-6.715716952037811,17.232107459020614,-12.404316715693474
1682096751396504800,25.3095048828125,-6.27544688141942,15.810370190560818,-4.630933123230934
1682096751416635000,25.329634765625,-5.200093777656555,13.731785800915956,3.2655922802537676
1682096751436764700,25.3497646484375,-4.663694406104088,12.427945428562163,10.65401501686573
1682096751456894000,25.36989404296875,-3.85703783172369,12.128368607747554,16.36833608175516
1682096751477023700,25.390023681640624,-3.5516286514937874,11.457239278709888,17.743843513959646
1682096751497153800,25.41015380859375,-2.0702792103752494,11.122883405458927,20.05827079565525
1682096751517283800,25.430283935546875,-0.8711363530755043,12.02643500444889,24.31721418828964
1682096751537412900,25.450412841796876,-1.3545754110738635,13.021349712884426,25.115130991375445
1682096751557543000,25.47054296875,-2.5839891957357524,12.219469851386547,22.08888581190109
1682096751577672700,25.490672607421875,-4.430942465806007,11.261954022496939,15.303991863262652
1682096751597802000,25.510802001953124,-2.9051392581939695,9.41014892848134,10.016862776231765
