time,seconds_elapsed,z,y,x
1682361360830678300,0.02567822265625,0.7728729627221822,0.9471195225596427,1.5724024617016314
1682361360850807300,0.045807373046875,1.1326643060028552,1.193148585321009,0.39658641171455383
1682361360870936000,0.06593603515625,0.669428954860568,-0.3597165244787931,-0.07633563618361949
1682361360891064000,0.08606396484375,0.742363842689991,-0.5990513502985239,-0.2922852025017142
1682361360911193300,0.106193359375,0.2712117270737886,0.03608881986066699,0.21597323945462701
1682361360931322400,0.126322265625,-1.2872633315622806,-0.5674170256286859,0.22564707672894
1682361360951450400,0.146450439453125,-0.4684054472565651,-1.1110372883453965,0.16378887870907782
1682361360971579400,0.166579345703125,1.201117664504051,-1.218861703248322,0.6261585529327393
1682361360991708200,0.186708251953125,1.1294447594344614,-1.3472040055230259,0.7436895383358001
1682361361011836400,0.20683642578125,-0.5313116930246353,-1.0045251250848173,-0.1664133819937706
1682361361031965200,0.226965087890625,-1.7997639411330222,-0.8514856039270758,-0.6817997761338949
1682361361052094200,0.24709423828125,-1.653318411412835,-1.0482036694221197,-0.34176351915895936
1682361361072222200,0.26722216796875,-0.7905635177135467,-1.3039742278665303,-0.1205202303469181
1682361361092351200,0.287351318359375,-0.6412994234412909,-1.1918882099963723,-0.0451958170324564
1682361361112480300,0.307480224609375,-0.9196107533872127,-0.8251661906696856,0.05538929426670074
1682361361132608300,0.327608154296875,-1.3338807058304547,-0.6469288076303898,0.025005261918902396
1682361361152737300,0.3477373046875,-1.0754372749149799,-0.7532599152356386,-0.39212183352112767
1682361361172866300,0.3678662109375,-1.505350786691904,-0.40577538808137176,-1.032974682238698
1682361361192994300,0.387994384765625,-1.9970798263907432,-0.19805793579667805,-1.1417413464277981
1682361361213123300,0.408123291015625,-1.6747160042285918,-0.6150307174578309,-0.8491431324541568
1682361361233252400,0.42825244140625,-1.0749076980829237,-0.8838011888593434,-0.4648147292882204
1682361361253381400,0.44838134765625,-1.1983218963056803,-0.8500470955565571,-0.429695485112071
1682361361273509400,0.46850927734375,-2.1922890947580336,-0.3602253507837653,-1.4852601848214864
1682361361293638100,0.48863818359375,-3.194343153554201,-0.02311491812765598,-2.216837845081091
1682361361313767200,0.50876708984375,-2.592304311877489,-0.1600514457464218,-2.1872610374629495
1682361361333895200,0.528895263671875,-1.1756488767266273,-0.39920682334601876,-1.7521622320026158
1682361361354024200,0.549024169921875,-0.2771767729580402,-0.4940986914396286,-1.2937129460930823
1682361361374153500,0.569153564453125,-0.6595721622347831,-0.15609715516269207,-1.316720312193036
1682361361394281200,0.58928125,-1.7031798821687698,0.0032844284981489178,-1.2835025177240371
1682361361414410200,0.60941015625,-1.5225111803293228,-0.20565847392827272,-1.4286270279735327
1682361361434539300,0.629539306640625,-0.3379050901651382,-0.4265615710005164,-0.9353729706645011
1682361361454667300,0.649667236328125,0.12993746251165866,-0.658676236308366,-0.13351415195465088
1682361361474796300,0.66979638671875,-0.3253320243179798,0.010126987869292498,-0.26046704569756984
1682361361494925300,0.68992529296875,-0.537250435423851,0.2229609063848853,-0.9535884263128042
1682361361515054300,0.710054443359375,0.05814122332334518,0.09886398659497499,-0.4680728543013334
1682361361535182300,0.730182373046875,0.7035252857297658,0.3016749621376395,0.32591420812010763
1682361361555311000,0.75031103515625,0.7196575053632259,0.5483861619442701,0.2863894224613905
1682361361575440100,0.770440185546875,0.30723347304761406,0.792495070298016,-0.07038695691227913
1682361361595568000,0.790568115234375,0.48006724347770213,0.9690605746023356,-0.11800737074315547
1682361361615696100,0.810696044921875,1.2381804439634083,0.8665149768851697,0.23889292727112768
1682361361635825400,0.830825439453125,1.6323586254924536,0.8138406406655907,0.6024895080536603
1682361361655953400,0.850953369140625,1.6002420702636242,0.8231811543323099,0.624706016036868
1682361361676082400,0.87108251953125,0.2978478050649166,0.921223449280858,0.010623685345053672
1682361361696211500,0.89121142578125,-0.24883330652713775,0.9682393213473259,-0.38786651416420936
1682361361716340200,0.91134033203125,0.4141980562508106,0.8165734266303479,-0.04541209013164043
1682361361736468200,0.93146826171875,1.043834514427185,0.6144302673466503,0.3279115194171667
1682361361756597200,0.95159716796875,1.2407973484635353,0.4909706225469708,0.10034779541194438
1682361361776726300,0.971726318359375,0.6410767206013203,0.4947244951877743,-0.6925777752578258
1682361361796854300,0.991854248046875,0.44081776762902736,0.6087730453025549,-0.38374505032002926
1682361361816983300,1.0119833984375,0.9772989722460508,0.8703236484531313,0.3408113330006599
1682361361837112300,1.0321123046875,1.1322270836293697,0.8700944428071379,0.9785399122178554
1682361361857241300,1.052241455078125,0.7236112114250659,0.8101619521528481,1.183641044524312
1682361361877369300,1.072369384765625,-0.26741467287838455,0.5658331174381077,-0.0016734861701726913
1682361361897498400,1.092498291015625,0.005070142871141433,0.5890952620167285,0.33989421815574167
1682361361917627400,1.11262744140625,1.0124299068599938,0.6771303960833698,1.2018325347751377
1682361361937755400,1.13275537109375,1.233199732941389,0.6776664026562124,1.4760855292409658
1682361361957884400,1.152884521484375,0.9266419671982526,0.5503108463965356,0.8150906407266855
1682361361978013200,1.17301318359375,0.5770908629029989,0.6191776810694486,0.651812049627304
1682361361998142200,1.19314208984375,0.5826730469495057,0.6336695130847394,1.3102315346956253
1682361362018270200,1.213270263671875,0.5996417174071074,0.3256791937878355,1.3993249456435441
1682361362038399200,1.233399169921875,0.6351829863876104,0.15374354124125092,1.1024614754408597
1682361362058528500,1.253528564453125,0.649501434597373,0.009792385620065033,0.6056687226116657
1682361362078656300,1.27365625,0.7329799282729625,-0.33610691816937177,0.49969081235826013
1682361362098785300,1.293785400390625,0.8246358831852674,-0.3906349559642374,0.7865992902576923
1682361362118914300,1.313914306640625,0.5334814382791518,-0.5243415617510676,0.9894237098038196
1682361362139042300,1.334042236328125,-0.0041810850769281385,-0.5865889782842248,0.48414311461448667
1682361362159171300,1.35417138671875,-0.12608370969295501,-0.4175250817816704,0.3162847945094108
1682361362179300400,1.37430029296875,-0.09513210659027099,-0.39672494340240955,0.4374456608474254
1682361362199429400,1.394429443359375,0.2555973938345909,-0.417514195061475,0.7898667676210402
1682361362219557400,1.414557373046875,0.36728725199401374,-0.4270666709784418,0.9165174635469913
1682361362239686100,1.43468603515625,0.4082254115819931,-0.3664866762008518,1.088661498147249
1682361362259815200,1.454815185546875,0.43942017579078674,-0.10676906063109635,1.1241074900597334
1682361362279943200,1.474943115234375,-0.5675181479156017,-0.10805310909226536,0.08376140227019786
1682361362300072200,1.495072265625,-0.34257892719507216,-0.1770838290899992,0.37518238915801044
1682361362320201500,1.515201416015625,0.2992190934181213,-0.199454943113029,0.5090718041658401
1682361362340330200,1.535330322265625,0.2640472422719002,-0.14489077455885707,0.3773252464056015
1682361362360458500,1.55545849609375,0.24999065986871719,0.02773812094889581,0.52550271448493
1682361362380587300,1.575587158203125,0.5495376700669526,0.15407916640378533,0.019267010527849196
1682361362400716300,1.59571630859375,0.7269844872504472,0.18375892293974755,0.16530863562226294
1682361362420845300,1.61584521484375,0.5791016182035208,0.3741045307934284,0.13357611127495764
1682361362440973300,1.635973388671875,0.5187099856048822,0.5425003187760711,0.07765022591352462
1682361362461102300,1.656102294921875,0.5842693762302398,0.8012589531205594,0.1110831244379282
1682361362481231000,1.676231201171875,0.5811795935213565,1.130764317600429,0.363215472510457
1682361362501359000,1.696359130859375,0.5069523277938366,1.4400288580842315,0.36484044336378574
1682361362521488100,1.716488037109375,0.743880092471838,1.4748977807611225,0.45987551932036874
1682361362541617400,1.736617431640625,0.7888187198728323,1.2721177848786114,0.2537719319730997
1682361362561746400,1.756746337890625,-0.2088192760467529,0.9817284791260957,-0.9657879826724529
1682361362581874400,1.77687451171875,-0.8219955978095531,0.8213825804777443,-1.8768986187398433
1682361362602003500,1.79700341796875,-0.844413181322813,1.018065866920352,-2.087167509073019
1682361362622133200,1.81713330078125,-0.6273796191602945,1.1257316571954636,-1.7967185820877551
1682361362642262300,1.83726220703125,-0.3925993879050016,1.2868009747475384,-1.3001128762632608
1682361362662390300,1.857390380859375,-0.475339630433917,1.2965427626915276,-1.0777823767364025
1682361362682519300,1.877519287109375,-0.5375099631428718,1.2579406448356807,-0.8780962552160024
1682361362702648000,1.89764794921875,-0.12223872470259665,1.1724031728036701,-0.694265289953351
1682361362722776000,1.917776123046875,0.44608664794266223,0.9709196464724839,-0.5435217707782983
1682361362742905000,1.937905029296875,0.6382055490791797,0.9235875480636954,-0.174818222245574
1682361362763034000,1.9580341796875,0.05999766484498977,0.8984238807126879,-0.3793243112683296
1682361362783163100,1.9781630859375,-0.5193099973246454,0.6916688437193632,-0.2067161662876606
1682361362803291100,1.998291015625,-0.751442636680603,0.40369478241503237,0.019134908580780027
1682361362823420200,2.018420166015625,-0.5095809227317571,0.2433344168499112,-0.1332902800709009
1682361362843549200,2.038549072265625,-0.23893705867379902,0.08421411447376012,0.06525719280838967
1682361362863678200,2.05867822265625,-0.250854583221674,0.13875146808624267,0.40556934411525725
1682361362883806200,2.07880615234375,-0.3053732321336865,-0.0036769349470734593,0.4964326873451471
1682361362903935200,2.098935302734375,-0.2675119957730174,-0.4428969119906425,0.13278466863632202
1682361362924064300,2.119064208984375,0.018904606956243512,-0.7882976186081767,0.026047464448213577
1682361362944193000,2.139193115234375,0.3682534666776657,-0.6499167373999953,0.2558107443243265
1682361362964321000,2.159321044921875,0.18077654612809418,-0.5324357286185026,0.3211854260325432
1682361362984450000,2.179449951171875,-0.09705985978245735,-0.7898001321256161,0.1674462321728468
1682361363004579000,2.1995791015625,0.18358254345953465,-1.06562724404037,-0.059089902350306506
1682361363024708400,2.219708251953125,0.778306093686819,-1.0918825060203672,0.07883855891525746
1682361363044836400,2.23983642578125,1.2056354341894389,-0.8670648658528923,0.3934370077729225
1682361363064965400,2.25996533203125,0.9114595956355332,-0.6695692401140928,0.41319852381944655
1682361363085094100,2.28009423828125,0.44776305672228334,-0.728288555586338,0.24383505984842777
1682361363105223200,2.30022314453125,0.05441138914525508,-0.6187620129406451,-0.32629239378273484
1682361363125351200,2.32035107421875,-0.13383271638453006,-0.753977123594284,0.21552608020901678
1682361363145480200,2.340480224609375,-0.13193974224478006,-0.7946352971971035,0.2516892804801464
1682361363165609200,2.360609130859375,-0.08143909680247306,-0.9336158978641033,0.3409410968601703
1682361363185738000,2.380738037109375,-0.3103898912519216,-0.943262262609601,0.2022141786932945
1682361363205866000,2.400865966796875,-0.3982248265713453,-0.9381997185230254,0.09991174208223819
1682361363225995300,2.420995361328125,-1.1787222928225993,-1.1507020669966936,-0.8614964180707931
1682361363246124300,2.441124267578125,-1.3142594750374554,-1.1963795300662516,-0.7841893065065145
1682361363266253300,2.46125341796875,-0.6342281698808073,-1.2335814257353543,-0.4911719903379678
1682361363286381300,2.48138134765625,0.03379588661789894,-1.2635855188548564,-0.09545534719526767
1682361363306510300,2.50151025390625,-0.27513679156303406,-1.2836731981158256,-0.6798387051939964
1682361363326639000,2.52163916015625,-0.8860147732555865,-1.4940648380458355,-1.1300468169808386
1682361363346768100,2.54176806640625,-0.4234297027155757,-1.5016829118341206,-0.6212777951538563
1682361363366896000,2.561896240234375,0.3378483915418386,-1.3312369133234023,-0.5676408975124358
1682361363387025200,2.582025146484375,0.630250790682435,-1.3266057463914156,-0.41376083387732504
1682361363407154200,2.602154296875,0.32981443042904135,-1.2175830616146326,-0.7305705290436745
1682361363427283200,2.622283203125,-0.35143092669248577,-1.0282476537168026,-1.128233630079031
1682361363447411200,2.6424111328125,-0.6427808941707015,-0.9890805954545736,-1.1640636528730393
1682361363467540200,2.662540283203125,-0.45691813081949945,-0.8049059313207865,-1.0145715950638055
1682361363487669200,2.682669189453125,-0.27208471051603556,-0.6929641442269087,-0.6170394269317389
1682361363507798300,2.70279833984375,-0.33673400055915115,-0.3725549632638693,-0.4101011423259973
1682361363527926300,2.72292626953125,-0.6404349155664444,-0.3879810804545879,-0.567224717926979
1682361363548055300,2.74305517578125,-0.7944412359297275,-0.37002690609097477,-0.23246903170347213
1682361363568184000,2.76318408203125,-0.9234244664564728,-0.2127946094185114,-0.3480582353889942
1682361363588313000,2.78331298828125,-1.033215505257249,-0.27435645484030247,-0.27419512679874897
1682361363608441000,2.803441162109375,-0.8843827881395816,-0.1862982321590185,-0.20353461364209652
1682361363628569600,2.823569580078125,-0.6720724551066756,-0.18383330335021017,-0.5634814397454262
1682361363648698600,2.84369873046875,-0.4887257662296295,-0.02403086392879486,-0.5336679007619619
1682361363668827600,2.86382763671875,-0.3216831464216113,-0.018882395124435424,-0.5183610260367393
1682361363688955600,2.88395556640625,-0.3177081053107977,0.06699556090831756,-1.1284726995319128
1682361363709084700,2.904084716796875,-0.6915542774289846,0.07407704360187053,-1.4386708676040172
1682361363729213700,2.924213623046875,-0.4260483607813716,0.25150398704111576,-1.6669471237927673
1682361363749342700,2.9443427734375,-0.1071682890817523,0.43284839618504045,-1.8698241503089665
1682361363769470700,2.964470703125,-0.6775836197435855,0.8069710471570491,-1.7203034509271382
1682361363789599700,2.984599853515625,-0.8185451650947332,0.9149041831314563,-2.0846113948494196
1682361363809728500,3.004728515625,-1.4878557542726396,1.1533733320325612,-2.7471716329842804
1682361363829857500,3.024857421875,-1.4092951355159282,1.175187104433775,-2.5051941837012768
1682361363849985500,3.044985595703125,-1.0241782123208045,1.2336895622849464,-2.0714906319916246
1682361363870114600,3.065114501953125,-0.881659208394587,0.8738684083878994,-1.7483540718913078
1682361363890243600,3.08524365234375,-0.8387380582958459,0.7629366751194,-1.4790753587067127
1682361363910372600,3.10537255859375,-0.818248812496662,0.4660428097784519,-1.0966057351499796
1682361363930501600,3.125501708984375,-0.5866767296329141,0.2063672067195177,-0.8388695757210254
1682361363950629600,3.145629638671875,-0.2210509811103344,-0.22446926512122153,-0.22544833928644656
1682361363970758700,3.165758544921875,0.11571546041369438,-0.4530184930324554,0.3183306211233139
1682361363990887700,3.1858876953125,0.22031302222460508,-0.5405988690689206,0.4715191953629255
1682361364011016700,3.2060166015625,0.12090718383789062,-0.4795183774232864,0.3219657627552748
1682361364031144700,3.226144775390625,0.2771799878284335,-0.043263387665152545,-0.08695581439733505
1682361364051273500,3.2462734375,1.0066530770242215,0.11963204933553934,-0.02899754642546177
1682361364071402500,3.266402587890625,1.9602906031757592,0.5851803535953164,0.4371458011180162
1682361364091531800,3.28653173828125,2.1997177834540604,1.126140749453008,1.0981664085954428
1682361364111659500,3.306659423828125,1.4733645798444748,1.4288251808941363,1.0705711301833392
1682361364131788800,3.326788818359375,0.6293357216641307,1.5017127224504947,0.5083996039927006
1682361364151917600,3.34691748046875,0.5530491853192449,1.6726409515202045,1.023772554129362
1682361364172046600,3.367046630859375,0.9763730895727872,1.7570748462244867,1.7761726376652716
1682361364192175600,3.387175537109375,0.9590069442301988,1.4750519484095275,2.1552748306155203
1682361364212303600,3.4073037109375,0.28209523239880796,1.2496981555387376,1.699663983002305
1682361364232432600,3.4274326171875,-0.5501072866484522,1.095148229818046,0.8718576530873775
1682361364252561700,3.447561767578125,-0.572545620688796,1.0650297165386378,0.6044657765626907
1682361364272690400,3.4676904296875,0.302785553728044,1.4149464392758906,1.0749567979216574
1682361364292818400,3.487818359375,1.0657736667737363,1.4069758987881242,1.437951321157813
1682361364312947700,3.50794775390625,1.158055060108006,1.1683502441510558,1.0060825836598872
1682361364333076700,3.52807666015625,0.8482292324796319,1.1166858156263828,0.5714040494382381
1682361364353205800,3.548205810546875,0.5220063968017697,1.084832222182676,0.7785013239979743
1682361364373333800,3.568333740234375,0.6075286712646484,1.1654556186880916,1.3986229348540304
1682361364393462800,3.588462890625,0.7018900857433676,1.0625623035117984,1.6233558193475006
1682361364413591600,3.608591552734375,0.6936749228447675,0.8392688041716814,1.2573247048944234
1682361364433720600,3.628720458984375,0.7417752291470766,0.8086056626215576,0.9540987139225006
1682361364453849600,3.648849609375,0.9430591412529349,0.8352142680838703,1.2665700876235961
1682361364473977600,3.6689775390625,0.7634238741144538,0.8161521324783563,1.3112532789587974
1682361364494106600,3.689106689453125,0.3082280370429158,0.65382908853814,1.1605267109185458
1682361364514235600,3.709235595703125,0.31163404609411954,0.5147810851907357,0.7660165209561586
1682361364534364700,3.72936474609375,0.35970863343328235,0.2796343221779913,0.30418460687100884
1682361364554492700,3.74949267578125,0.38320173722356554,0.17121080887075513,0.5595628049969673
1682361364574621700,3.76962158203125,0.5725663712158798,0.11770807726932689,0.7892547732025385
1682361364594750700,3.789750732421875,0.47126229799240826,0.029148882795963435,0.780104083019495
1682361364614880500,3.809880615234375,0.31396015095412727,-0.17475056383684276,0.3969020535349846
1682361364635009500,3.830009521484375,0.4193924100235104,-0.34652116201482713,-0.123099725446105
1682361364655137500,3.850137451171875,0.8384446283072232,-0.39374439322166144,0.16309095957279204
1682361364675266600,3.8702666015625,1.118384728498757,-0.4206425562150776,0.6133160224944353
1682361364695395600,3.8903955078125,0.7323948218613863,-0.47164176229666915,0.6416524746626615
1682361364715524600,3.910524658203125,0.33086423174291846,-0.5935670736685394,0.290366509398818
1682361364735653600,3.930653564453125,0.033223931948840615,-0.41483986128568645,0.0678045392036438
1682361364755781600,3.95078173828125,0.020462650053203104,-0.4561130980469286,0.19896599055230615
1682361364775910700,3.97091064453125,0.17841653899848461,-0.5945793925162405,0.15703531279563904
1682361364796039700,3.991039794921875,0.2402951952844858,-0.7381542621709406,-0.059446460703015326
1682361364816168400,4.01116845703125,0.09953852485567331,-0.7880332685835659,0.1782119563370943
1682361364836296400,4.03129638671875,0.036195348975062366,-0.5545896927595139,0.2629986100018024
1682361364856425500,4.051425537109375,0.0015416764840483666,-0.4420157817745581,0.30291736341416836
1682361364876554500,4.071554443359375,-0.10498568434566259,-0.534569379646331,0.40733635378777977
1682361364896683500,4.09168359375,-0.24942308911383151,-0.4762082299619913,0.05288870962262153
1682361364916812500,4.1118125,-0.3360410498589277,-0.35652152782976626,-0.20150573816299439
1682361364936940500,4.1319404296875,-0.30878011796772475,-0.15394373998846858,-0.2250590477079153
1682361364957069600,4.152069580078125,-0.05930675997138023,-0.09055354662835598,-0.06861819367408752
1682361364977198600,4.172198486328125,0.0625713147252798,0.0532489943023771,-0.06784545573592185
1682361364997327600,4.19232763671875,-0.16701251693069935,0.00349500250890851,-0.11691431480944156
1682361365017456600,4.21245654296875,-0.4434668208330869,-0.08286065403819083,-0.5210054030656814
1682361365037584600,4.232584716796875,-0.35740766301453114,0.08972878624200821,-0.2627706464648247
1682361365057713400,4.25271337890625,-0.2971341038376093,0.4333347183972597,0.12871288915276527
1682361365077842400,4.272842529296875,-0.3597296762213111,1.2386946770958602,-0.015157237121462821
1682361365097971700,4.2929716796875,-0.6567328471556305,1.4826612543694675,-0.7682581624031066
1682361365118100700,4.313100830078125,-0.7406456405952573,1.299043493466079,-1.5653730014562606
1682361365138228700,4.333228759765625,-0.07604512880444526,1.2428133644610642,-1.3320055596083402
1682361365158357500,4.353357421875,0.555270076239109,1.2886851810589433,-0.2518459323465824
1682361365178486500,4.373486572265625,0.9071882019266486,1.4540410168237983,0.39618309161067006
1682361365198615600,4.393615478515625,0.3819216342851519,1.3819345426425338,0.4761772503018379
1682361365218744600,4.41374462890625,-0.16721856089681386,1.2308674906015395,0.29374972209632394
1682361365238872600,4.43387255859375,-0.2936906853854656,1.204511983117461,0.1011269630908966
1682361365259001600,4.454001708984375,-0.014910568884015082,1.2728855543807147,0.4407505476117134
1682361365279130400,4.47413037109375,0.47424745128303764,1.483806478881836,0.6806745714962482
1682361365299259600,4.494259765625,0.7922069010064006,1.2318418885916471,0.8482605044007301
1682361365319388700,4.514388671875,0.3494116958245635,0.828045983889699,-0.30194471898972985
1682361365339516700,4.5345166015625,-0.2370189500927925,0.08645955531299114,-0.6214958218187093
1682361365359645700,4.554645751953125,-0.07148147415071725,-0.09151888452917337,-0.06569675326943397
1682361365379774500,4.5747744140625,0.5240092610567808,0.004731996957957744,0.4712473926842212
1682361365399903500,4.594903564453125,0.6397739674396813,0.057873220036923884,0.7935621150076388
1682361365420032500,4.615032470703125,0.07934124774038791,-0.10369184514284133,-0.21664368606209752
1682361365440160500,4.635160400390625,-0.6297820041269063,-0.6051718790054321,-0.9463689964532852
1682361365460289500,4.65528955078125,-0.6749361739747226,-0.645765755200386,-0.34487434465587136
1682361365480418600,4.67541845703125,-0.11410042643249034,-0.8187754667192697,0.2627227156698704
1682361365500547600,4.695547607421875,0.25975159090459343,-1.0353811588585375,0.35015140827596186
1682361365520676600,4.715676513671875,0.3415240113146603,-1.3326006028920412,0.10153262128233909
1682361365540804600,4.7358046875,0.043027240821719166,-1.4564116914778946,-0.41337271134257314
1682361365560933600,4.75593359375,-0.06686696609258651,-1.195385258331895,-0.31715397855937477
1682361365581062700,4.776062744140625,0.09567878068760037,-1.0462748933166266,0.11078852540552615
1682361365601191400,4.79619140625,0.27378318499699233,-0.9795178173393011,0.23035072437524795
1682361365621320200,4.8163203125,0.2916398903355002,-0.902217135515809,0.04020809174776077
1682361365641449200,4.83644921875,0.14362126607969403,-0.9802332721322774,-0.5080588277310133
1682361365661577200,4.8565771484375,0.0827989869788289,-0.7528682855695485,-0.5520727415025234
1682361365681706200,4.876706298828125,0.053446343505382535,-0.6311842721402645,-0.42643560653328894
1682361365701835300,4.896835205078125,0.00686930124759674,-0.6194032334536314,-0.2042933230549097
1682361365721964300,4.91696435546875,-0.19144553191959857,-0.4977577984690666,-0.18624913232028484
1682361365742093300,4.93709326171875,-0.6562561695545911,-0.4209124591976404,-0.6072229663163423
1682361365762221300,4.95722119140625,-0.9562449321709573,-0.39983109272420403,-0.7841893065065145
1682361365782350300,4.977350341796875,-0.6938485258460044,-0.2491489483475685,-0.45687692202627656
1682361365802479400,4.997479248046875,-0.33965792518183585,-0.3893716580301523,-0.04489887991249561
1682361365822608100,5.017608154296875,-0.19397417361438274,-0.578325373134017,0.10749942073225974
1682361365842737200,5.037737060546875,-0.07927914228960871,-0.4361182116359472,-0.04100596412718296
1682361365862865200,5.057865234375,0.06116203244924545,-0.29432079998254773,-0.13006430376172065
1682361365882994200,5.077994140625,0.3503165357097983,-0.2207148810237646,-0.00865443109869957
1682361365903123500,5.09812353515625,0.6372247213482857,-0.2030547211706638,0.2329460015654564
1682361365923252200,5.118252197265625,0.6303209333091974,-0.37814416157305236,0.4569418039560318
1682361365943381200,5.13838134765625,0.6087561672329902,-0.5246908135801553,0.3469207557916641
1682361365963510300,5.15851025390625,0.47496100637987254,-0.5159750076830387,-0.08622808464467525
1682361365983638300,5.17863818359375,0.14607728092968464,-0.3619055589556694,-0.3941933790981769
1682361366003767300,5.198767333984375,0.10336977358162402,-0.17183949869573115,-0.12549684971570968
1682361366023896300,5.218896240234375,0.1968180187381804,-0.20478665952980518,0.08771803094148635
1682361366044025000,5.239025146484375,0.05011749134361743,-0.2058697785913944,-0.14408055415451526
1682361366064154000,5.259154052734375,-0.25132103168964387,-0.13292261580228804,-0.0678349343419075
1682361366084282000,5.2792822265625,-0.32601883753836153,-0.03847147721350193,-0.28000819699168206
1682361366104411400,5.299411376953125,-0.3046662529081106,0.053716392618417735,-0.23057751886844632
1682361366124540400,5.31954052734375,-0.350452290918678,-0.07888064449131488,-0.028167525342106817
1682361366144669200,5.339669189453125,-0.4248137044198811,-0.19801205082833767,-0.3018687311440706
1682361366164798200,5.359798095703125,-0.5778818671502173,-0.3041343379884958,-0.21090952632427215
1682361366184927200,5.37992724609375,-0.591936988248676,-0.4540256242483854,-0.26554244926571846
1682361366205055200,5.40005517578125,-0.5471140961818397,-0.43162440734803675,-0.5803349593907594
1682361366225184300,5.420184326171875,-0.49793490860164163,-0.4414560655325651,-0.5695791720986366
1682361366245313300,5.440313232421875,-0.2608889243714511,-0.31000761393606663,-0.6716770260483026
1682361366265442300,5.4604423828125,-0.0024608371555805207,-0.24425416204333303,-1.0394155289411544
1682361366285571300,5.4805712890625,0.06472644693255424,-0.34857436821758747,-1.3311562493026257
1682361366305700400,5.500700439453125,0.2664141175337136,-0.4757599016726017,-1.1476380032509566
1682361366325828400,5.520828369140625,0.36310222139433024,-0.11247545557916164,-0.90954470192492
1682361366345957400,5.540957275390625,0.26271570140719414,0.41550621623992917,-1.0189216069668532
1682361366366086100,5.561086181640625,-0.04745660157129168,0.5426508331626654,-1.397939628764987
1682361366386215200,5.581215087890625,-0.3175730807542801,0.09034487231373786,-2.018749221885204
1682361366406344200,5.60134423828125,-0.32176512561663984,-0.013217793491482733,-1.8416759141892194
1682361366426473500,5.621473388671875,-0.037892216020822524,0.14061375482678412,-1.2536147444605827
1682361366446601200,5.641601318359375,0.03088978991284966,0.2735574134171009,-1.022215387815237
1682361366466730200,5.661730224609375,-0.22408976428434252,0.38272564414441584,-1.4451701664954424
1682361366486859300,5.681859375,-0.5598119574524462,0.5787228480190039,-1.9005401910901067
1682361366506988300,5.70198828125,-0.573523964201659,0.7181511924535036,-1.576737860557437
1682361366527117300,5.722117431640625,-0.09057751202583313,0.6972299849778414,-0.9556026887446641
1682361366547246300,5.742246337890625,0.2347850535608828,0.365073083075881,-0.3134463562130928
1682361366567374300,5.762374267578125,0.27142916921675203,0.09567980360090732,0.029517186385393142
1682361366587503000,5.782503173828125,0.27707974232435223,0.11924421906173228,0.22699966038167474
1682361366607632100,5.802632080078125,0.08912336769476532,0.19510230086147784,0.3656745561003685
1682361366627760600,5.8227607421875,-0.1327893448114395,0.19949264477491377,0.3965834891051054
1682361366647889700,5.8428896484375,0.03692556294575333,0.2762748556822538,0.741336253207922
1682361366668017700,5.863017578125,0.21351079486384986,0.36874154245555396,1.1848521738797426
1682361366688146700,5.883146728515625,0.013080576977878807,0.5564169081866741,0.9513257420778274
1682361366708275500,5.903275390625,-0.43060032499730583,0.34080198065042494,0.40497079370021816
1682361366728404700,5.92340478515625,-0.32471418468058105,0.2569207513928413,0.027220015358924866
1682361366748533800,5.94353369140625,0.1859505877651274,0.39549189447611566,0.396572967711091
1682361366768662800,5.963662841796875,0.5004788939960301,0.571786619015038,0.8089233502686023
1682361366788791600,5.98379150390625,0.4955091427594423,0.7021358771979809,0.5426747985601424
1682361366808919600,6.00391943359375,0.1630642176963389,0.4581526410505175,0.015560557225346563
1682361366829048600,6.024048583984375,0.4537367243044078,0.3315788097530603,-0.4614946449548006
1682361366849177600,6.044177490234375,1.2893652722775935,0.581460456289351,0.003418284010887146
1682361366869306600,6.064306640625,1.5437871925920248,0.9581190554797648,0.7798346184283494
1682361366889435600,6.084435546875,1.091134610262513,1.00927611900419,1.103657991749048
1682361366909564700,6.104564697265625,0.4022301166899502,0.8217977371498942,0.5784212347239256
1682361366929692700,6.124692626953125,0.9949263988733291,0.9064894060075283,0.8594844937264918
1682361366949821700,6.14482177734375,1.6074492251634598,1.038791844084859,1.9835686029106376
1682361366969950700,6.16495068359375,1.7637413183763622,1.1095876740589736,2.671404736599326
1682361366990079700,6.185079833984375,1.1435238459303974,0.8690595468014478,2.3933318915843964
1682361367010208500,6.20520849609375,0.09644085110127926,0.6690227121472359,1.4559405668348073
1682361367030337500,6.225337646484375,-0.9237640736743807,0.4733122162595391,0.5400882891982793
1682361367050465500,6.245465576171875,-0.9462209662847221,0.5800687096700072,0.3178518976956606
1682361367070594600,6.265594482421875,0.22313772425651549,0.7010860758841038,1.0953156953394412
1682361367090723800,6.285723876953125,1.0213128860175609,0.6557873829990625,1.1971949381023645
1682361367110852600,6.3058525390625,0.957024976632744,0.4026704078033566,0.7990022602349519
1682361367130981600,6.325981689453125,0.46137540248930453,0.059951487615704534,0.04981529352664947
1682361367151110700,6.346110595703125,0.2229635367333889,0.06716653356105089,-0.0579097526550293
1682361367171239700,6.36623974609375,0.388355758985877,0.17689385947585104,0.3661661390095949
1682361367191367700,6.38636767578125,0.1795101794540882,0.13554127386808396,0.4397118522137403
1682361367211496700,6.40649658203125,-0.3029536037713289,0.08260463345050811,-0.017629764714837074
1682361367231625500,6.42662548828125,-0.66389557839185,-0.11287293046414852,-0.20808570107519625
1682361367251754800,6.446754638671875,-0.20611980782970785,-0.14498393273502588,-0.06119067402184009
1682361367271883800,6.4668837890625,0.4426207253977656,-0.127497375883162,0.37270810799896714
1682361367292012800,6.4870126953125,0.6406999962434172,-0.1540362771101296,0.7586240726172924
1682361367312140800,6.507140869140625,0.32794308359920976,-0.08993044629395007,0.675387571004033
1682361367332269600,6.52726953125,-0.2808484472081065,-0.1645455422952771,0.5726841523766517
1682361367352398600,6.547398681640625,-0.3201224729761481,-0.38032209013402457,0.5951619416445494
1682361367372527600,6.567527587890625,0.1848629386588931,-0.505028666254878,0.40782150695621966
1682361367392656600,6.58765673828125,0.4995495041914284,-0.5616872498050332,0.5272919359892606
1682361367412785400,6.607785400390625,0.23949907647073268,-0.43081221418231724,0.30829379575550553
1682361367432914700,6.627914794921875,-0.2950456071257591,-0.366854121273756,0.08840309059619902
1682361367453042700,6.648042724609375,-0.2746633288323879,-0.6442717172503472,0.008961889612674712
1682361367473171700,6.668171630859375,-0.0059212067425251005,-0.5404853256918489,-0.3037859629422426
1682361367493300700,6.68830078125,0.23780191716402768,-0.44607904915809626,0.14143208547234534
1682361367513429800,6.7084296875,0.26754794386923314,-0.41562092866078015,0.2776432214260101
1682361367533558500,6.72855859375,0.10074468577504157,-0.43250776605382557,0.4419079009532928
1682361367553687600,6.7486875,-0.15716186178475616,-0.3224975315444171,0.21568916181623934
1682361367573816600,6.768816650390625,-0.05568155521154403,-0.27412337673678994,0.09705693717300891
1682361367593944600,6.788944580078125,0.2857347579449415,-0.3581954523913562,0.008043021202087402
1682361367614074000,6.80907421875,0.5200643228232861,-0.3035498160988092,0.33331133263409135
1682361367634203100,6.829203125,0.5724389454439283,-0.19177900165766476,0.5394622662544251
1682361367654332200,6.849332275390625,0.45310763262063264,0.04512538214474916,0.11434651014804839
1682361367674461200,6.869461181640625,0.6251116742283106,0.15070494073033333,0.036846506360173226
1682361367694590200,6.889590087890625,0.9607990883439779,0.32237215159907934,0.10106208116114139
1682361367714719000,6.909718994140625,0.9394958958134054,0.5380367634959519,0.2704413272231817
1682361367734847000,6.929846923828125,0.5646601281359791,0.7477009659342467,0.3096703448057174
1682361367754976000,6.94997607421875,0.20349808102399108,1.1078118965581059,0.04382628224492073
1682361367775105300,6.970105224609375,-0.053877136138081545,1.3433446997463703,-0.3085363723397255
1682361367795234300,6.990234375,0.062164195229113095,1.5201033885352313,-0.30843817266225815
1682361367815363000,7.010363037109375,0.1993997057944536,1.7093490723229943,-0.41949440909326075
1682361367835492000,7.0304921875,-0.13240677523463965,1.758558947302401,-0.4443541250616312
1682361367855621000,7.05062109375,-0.8862193559169769,1.7210341032892464,-0.20874504176676273
1682361367875749000,7.0707490234375,-0.7475675488129258,1.6214727820798753,-0.3445107720404863
1682361367895878100,7.090878173828125,0.02232289096713066,1.7034622062414884,-0.6501864942520856
1682361367916007200,7.111007080078125,-0.14873890135437248,1.4643842777922749,-0.7834627457976341
1682361367936136200,7.13113623046875,-0.6287675663873553,1.1311565317884087,-0.818521199697256
1682361367956265200,7.15126513671875,-0.892895764940977,0.8655617678135633,-0.6495826831400394
1682361367976394200,7.171394287109375,-1.1253957763046025,0.6993482923060655,-0.3928407954454422
1682361367996523300,7.191523193359375,-1.0494552769184111,0.5775900445967912,-0.35358079820275307
1682361368016651300,7.2116513671875,-0.4237709173686802,0.25251725573688744,-0.15456804589927195
1682361368036780000,7.231780029296875,0.3162859635531902,0.10088964720368385,0.04498772723972797
1682361368056909000,7.251908935546875,0.6354790467247367,-0.11018939046859741,0.2797311336159706
1682361368077038000,7.2720380859375,0.6620150253422558,-0.08539777130037546,0.1721253298997879
1682361368097167400,7.29216748046875,0.31097923544719813,-0.20132804350852965,-0.2698474529832601
1682361368117296000,7.312296142578125,0.3033428953498602,-0.3127005062818527,-0.4939227503508329
1682361368137425200,7.332425048828125,0.7576052509635687,-0.49844870334267616,-0.16497253553569316
1682361368157554200,7.35255419921875,1.004980759897828,-0.6069084935396909,0.3589221592307091
1682361368177682200,7.37268212890625,0.8787468280792236,-0.5141916313976049,0.6590472615778445
1682361368197811200,7.392811279296875,0.4583734441943466,-0.2315156765013933,0.6125497142970562
1682361368217940000,7.41293994140625,0.075722034329921,-0.17930501227080822,0.3095376583367586
1682361368238069000,7.433069091796875,-0.05467763886600732,-0.5025117149978876,-0.01598258202970028
1682361368258198300,7.4531982421875,0.12794073573648929,-0.4614671724259853,0.1101151561886072
1682361368278327300,7.473327392578125,0.2654869196861982,-0.5496212566971779,0.55342181802392
1682361368298456300,7.493456298828125,0.29610256883278485,-0.45320378647148607,0.6225982301026582
1682361368318584300,7.513584228515625,0.20080197380781173,-0.42912791435718534,0.3434007649719715
1682361368338713000,7.533713134765625,0.07876578593999146,-0.7400789466232061,-0.028565000227093695
1682361368358842000,7.553842041015625,-0.03529576978683471,-0.6488157904207706,-0.2522200263559818
1682361368378971100,7.57397119140625,-0.056812458937615155,-0.6775918030500412,0.0010135609567165373
1682361368399100200,7.59410009765625,0.12796060948073862,-0.7111848605722189,0.05783610289692878
1682361368419229000,7.61422900390625,0.37435660585835573,-0.6776976015120745,-0.06319324601590633
1682361368439358200,7.634358154296875,0.3355345616415143,-0.8304764259070158,-0.0039449382334947585
1682361368459487200,7.6544873046875,0.1598334190815687,-0.7874643826544284,-0.05203238505423069
1682361368479615200,7.674615234375,0.05053440158143639,-0.7457844647884369,-0.12564122662246227
1682361368499744300,7.694744140625,0.023301380610466,-0.6598281828224658,-0.12098083359599113
1682361368519873000,7.714873046875,0.09526187044978142,-0.6669722093582153,-0.04676175117492676
1682361368540002000,7.735001953125,0.0959071826159954,-0.6963871044129133,-0.2175941186547279
1682361368560131000,7.755131103515625,-0.09544190319180489,-0.7304869424134492,-0.11274784277975558
1682361368580260000,7.775260009765625,-0.13156842471435665,-0.7158224572449922,-0.21945698991715906
1682361368600389000,7.79538916015625,0.04719897354841232,-0.5930968258082866,-0.21435002216696739
1682361368620518400,7.815518310546875,0.05945756661891937,-0.6272451791256666,0.10024959573447703
1682361368640647400,7.8356474609375,0.1816400310896337,-0.48005847564935683,0.034416064342856406
1682361368660775400,7.855775390625,0.08726984878256916,-0.40379064400494097,-0.15699498078525065
1682361368680904400,7.875904541015625,-0.04103168309032917,-0.311006561845541,-0.42429508737325666
1682361368701033500,7.896033447265625,0.07681611317694187,-0.3864788591980934,-0.5085147548049688
1682361368721162200,7.916162353515625,0.2469663436114788,-0.43427287603020664,-0.43277825355827804
1682361368741291500,7.93629150390625,0.32343481239452954,-0.3340677039593458,-0.5068921220391989
1682361368761420500,7.956420654296875,0.2350982111632824,-0.18206103298068047,-0.542013704302907
1682361368781549600,7.976549560546875,0.14820669417381285,-0.19075462704598903,-0.4597212055414915
1682361368801678300,7.99667822265625,0.04820683541670441,-0.26755846526324745,-0.4251946665614843
1682361368821806300,8.016806396484375,-0.016406944921612737,-0.3694645960330963,-0.26153379814624783
1682361368841935400,8.036935302734374,0.14964914806708693,-0.3569026361018419,-0.04179974485337734
1682361368862064400,8.057064453125,0.24074819974899292,-0.2060784529060125,0.03405541433691978
1682361368882193400,8.077193359375,-0.03571180324181914,-0.09426175349652767,0.05330605825185775
1682361368902322400,8.097322509765625,-0.5006447520822286,-0.23695815981626508,-0.2966267388373613
1682361368922451500,8.117451416015625,-0.8390775193832815,-0.38579321502149105,-0.6268593946784734
1682361368942580500,8.13758056640625,-0.6569499970376491,-0.4010276090323925,-0.4828068975746631
1682361368962709500,8.15770947265625,-0.4310911772541702,-0.16108897210061549,-0.5528741210132837
1682361368982838300,8.17783837890625,-0.5796497536055744,-0.33271979648172856,-0.5931196221619844
1682361369002967300,8.19796728515625,-0.7366003107272088,-0.5026905786961317,-0.9711509710103273
1682361369023095300,8.21809521484375,-0.7123252627789973,-0.7416343593716621,-0.9347767583370208
1682361369043224300,8.238224365234375,-0.3611659926347434,-0.5100239903241396,-0.9242214620530604
1682361369063353600,8.258353515625,-0.06569909135699271,-0.3732628192722797,-0.7014023022264242
1682361369083482600,8.278482666015625,0.16895181443020701,-0.20802958697378635,-0.8344786472856998
1682361369103611400,8.298611328125,-0.0848033125385642,-0.17432196316123008,-1.1603595376580953
1682361369123740400,8.318740478515625,-0.38669454777538775,0.022480711877346037,-1.302201372975111
1682361369143869400,8.338869384765625,-0.23262393000423906,0.4231313042908907,-1.3096429211527107
1682361369163998500,8.35899853515625,-0.1678406383179128,0.6745394297420978,-1.0618740289866924
1682361369184127200,8.379127197265625,-0.11540142602846026,0.6938578781962395,-1.0533370867878198
1682361369204256500,8.399256591796876,-0.44892157910764213,0.6038619654506444,-1.1853987018465995
1682361369224385500,8.419385498046875,-0.8136223217397928,0.3102612964361906,-0.9729869542658328
1682361369244513500,8.439513427734376,-0.7296358785420656,0.2602034263253212,-0.7750123128384351
1682361369264642600,8.459642578125,-0.1342091484814882,0.41769817332625386,-0.6734563106805086
1682361369284771300,8.479771240234374,0.324233123165369,0.5069108267396688,-0.8277613217294215
1682361369304900400,8.499900390625,0.1903711806863546,0.7665501894414425,-1.1721306394726037
1682361369325029400,8.520029296875,-0.13120704405605793,0.8209592404991388,-0.9492886832922697
1682361369345158400,8.540158447265625,-0.0862641788713634,0.7417915957599878,-0.5692231982678174
1682361369365287400,8.560287353515625,0.21575477439835666,0.6274567760497332,-0.11739946797788142
1682361369385416400,8.58041650390625,0.352502939838171,0.5042728794515132,0.15374387003481388
1682361369405545500,8.60054541015625,0.08856324959397316,0.5027718272387981,0.3643365854948759
1682361369425674500,8.620674560546876,-0.30986382155120373,0.39605449679493904,0.43639644405543804
1682361369445803500,8.640803466796875,-0.5241488156579435,0.28717151274979114,0.5358101734876632
1682361369465931500,8.660931640625,-0.015562164660543202,0.2100789207190275,0.5796434699952602
1682361369486060300,8.681060302734375,0.368683674788475,0.241122878280282,0.6409113009065389
1682361369506189300,8.701189208984376,-0.09951368267536163,0.3889800283640623,0.4596241749078035
1682361369526318600,8.721318603515625,-0.4235058366917073,0.4936047704428434,0.004600771793723106
1682361369546447600,8.741447509765624,-0.14879004701972007,0.7502735929012299,-0.5435264469534158
1682361369566576400,8.761576416015625,0.4291244072258472,0.9884645093828439,-0.33242695101499553
1682361369586705400,8.781705322265625,0.9848135856598615,1.2810475257873535,0.45512160279154773
1682361369606834400,8.80183447265625,0.8977263999678194,1.3949243725970386,0.8012766349077224
1682361369626963000,8.821962890625,0.5631728121876717,1.3100909571811556,0.5722235491275787
1682361369647092000,8.842092041015626,0.3459410971045494,1.1740914181515574,0.40072950286865233
1682361369667220700,8.862220703125,0.6758505123406648,1.3877636871874333,0.7064893962323665
1682361369687348700,8.8823486328125,0.8532786248236894,1.4874734769567846,1.248992929878831
1682361369707477800,8.902477783203125,0.8194587728083134,1.4071397110477089,1.3970985017657278
1682361369727606800,8.922606689453126,0.6509956186778842,1.3915861680850385,1.374071261921525
1682361369747736000,8.942736083984375,0.5683901084445416,1.403662974847853,1.3609732954174278
1682361369767864800,8.96286474609375,0.6995517059236764,1.4053440598025917,1.2041565938085317
1682361369787993900,8.982993896484375,0.6903263430692255,1.4117875368535517,1.5232348184287547
1682361369808123000,9.003122802734374,0.4942028824664652,1.4647262230977416,1.6901204941093921
1682361369828252000,9.023251953125,0.2111966727025807,1.4628468390919267,1.7510417035400867
1682361369848381000,9.043380859375,0.28653029223680493,1.366763130865246,1.5666262163877487
1682361369868510000,9.063510009765626,0.05732464624345302,1.467260856141895,1.4539157830089329
1682361369888639000,9.083638916015625,-0.06656593731939792,1.054019223833084,1.5180138689100742
1682361369908767000,9.10376708984375,0.22219094492569563,0.8455133976496756,1.322384329304099
1682361369928896000,9.12389599609375,0.6130355981178581,0.4829961365364492,1.3501771761149168
1682361369949025000,9.14402490234375,0.8724576648071408,0.3817531458504498,1.1835866839885711
1682361369969153800,9.16415380859375,0.42178222776949403,0.4952423085168004,1.229421383446455
1682361369989282800,9.18428271484375,-0.1733966650098562,0.28578035065233703,0.881411078852415
1682361370009411800,9.204411865234375,-0.07806099867150187,-0.041730771270394325,0.2687526434838772
1682361370029540900,9.224540771484374,0.5075853650003671,-0.5052107448235154,-0.07312778005301952
1682361370049670000,9.244669921875,0.8654220670819281,-0.6461047778964042,0.1062029511809349
1682361370069799000,9.264798828125,0.5409810002543032,-0.5996360183186829,0.2862684264302254
1682361370089927000,9.284927001953125,-0.2751087345123291,-0.7764633884295821,0.21893676543533802
1682361370110056000,9.305055908203125,-0.5472760087452828,-0.8664071325965225,-0.08636310920119285
1682361370130185000,9.32518505859375,-0.41013446007370946,-0.9175412536367773,-0.041023499783873554
1682361370150313700,9.345313720703125,-0.2145844154447317,-0.8322494269289076,0.4399094206124544
1682361370170442800,9.36544287109375,-0.1363753866046667,-0.6755395466953515,0.8277665824264288
1682361370190571800,9.38557177734375,-0.21709084530770778,-0.656635962652415,0.8041565742582082
1682361370210701000,9.405701171875,-0.21514292611032723,-0.642150341182202,0.543824553117156
1682361370230830000,9.425830078125,-0.08667407484650612,-0.5239638144798576,0.4821276831388473
1682361370250958800,9.445958740234374,0.060480626056343315,-0.6144194536916912,0.7747533696413039
1682361370271087900,9.466087890625,0.2982873655259609,-0.7118703586183488,0.7344926709234714
1682361370291216000,9.4862158203125,0.5715805750489235,-0.659810208774358,0.5613093564033508
1682361370311345000,9.506344970703125,0.6301862010136247,-0.730691671205312,0.3394511505633592
1682361370331474000,9.526473876953125,0.7245308104880154,-0.6624179070547223,-0.04314531424343586
1682361370351602700,9.546602783203125,0.9256567555531859,-0.6379987744607031,0.16188392187058925
1682361370371732000,9.56673193359375,1.0996925952494143,-0.4061582499191165,0.2740636093735695
1682361370391861000,9.586861083984376,1.191551525387913,0.017828502157330513,0.2027981160610914
1682361370411990000,9.606989990234375,1.003257589367032,0.1614084133133292,0.3688414956986904
1682361370432118800,9.627118896484374,0.7907686848968267,0.13374372292682526,-0.39564007077515123
1682361370452247800,9.647247802734375,0.624323738721013,0.20953151596933603,-0.9963596465468406
1682361370472375800,9.667375732421876,0.9024208413943647,0.6524550237059593,-0.6208651226997375
1682361370492504800,9.6875048828125,1.2693009738922119,1.334827631291747,-0.5771785411864518
1682361370512633900,9.7076337890625,1.0266717827022076,1.9684563739746808,-0.7481675605326891
1682361370532763000,9.727762939453125,0.5271956360079347,2.0672522637695074,-1.2710212218135595
1682361370552892000,9.747891845703125,0.29688568203449245,2.2317489984869954,-1.5401812770545482
1682361370573021000,9.76802099609375,0.2948240733295679,2.6912454553619027,-1.4037392549544572
1682361370593150000,9.78814990234375,0.03459609708487987,2.988172053928673,-0.8221411437600851
1682361370613279000,9.808279052734376,-0.3748180858902633,2.9910391337975857,-0.29665245780050753
1682361370633407500,9.828407470703125,-0.8487526718318462,2.464794953295588,-0.04338555274009704
1682361370653535500,9.848535400390626,-1.0058084428936243,1.917919780436158,0.006408113476634025
1682361370673664500,9.86866455078125,-1.165606936792284,1.4612985867366193,0.13492168066501617
1682361370693793800,9.888793701171876,-1.2572820347964764,1.3483341785967349,0.32109833227097984
1682361370713922800,9.9089228515625,-1.082054062706232,0.8320169333472848,0.3035574148833752
1682361370734051600,9.929051513671874,-0.5060783214382827,0.33808336934149263,0.12744506117403506
1682361370754180600,9.9491806640625,0.03866495395898819,-0.0630439006730914,0.12027473115324973
1682361370774309600,9.9693095703125,0.13540683383345603,-0.3659615563482046,-0.37828912300169465
1682361370794438700,9.989438720703125,-0.02803366982936859,-0.6805261029362678,-0.5978413899868726
1682361370814567700,10.009567626953125,-0.15396671900525688,-0.8070452814370394,-0.029570962399244307
1682361370834695700,10.02969580078125,0.03917348800301552,-0.48576808546781536,0.28234745359420776
1682361370854824700,10.04982470703125,0.0788970111042261,-0.014934534281492232,0.32825288020074367
1682361370874953700,10.06995361328125,-0.22107655394300818,-0.12602525750398635,0.4014320981800556
1682361370895082800,10.090082763671875,-0.502895161357522,-0.4391624016374349,0.31404607567191123
1682361370915211800,10.110211669921876,-0.639690673070401,-0.6980915702432393,0.007784662526845932
1682361370935340500,10.130340576171875,-0.8656167128711938,-0.8234323526144027,0.15930033511817454
1682361370955469600,10.150469482421874,-0.9790567756988108,-0.9128449125140905,0.455969744053483
1682361370975598600,10.1705986328125,-0.8768960856460034,-0.9619096799343824,0.5615227068930864
1682361370995728000,10.190727783203124,-0.7000117246508598,-1.0940396840542554,0.5304664743721484
1682361371015856600,10.210856689453125,-0.501938299024105,-1.3211568333357573,0.280192905908823
1682361371035984600,10.230984619140624,-0.5128279418289661,-1.404366446942091,0.3105003658890724
1682361371056113700,10.25111376953125,-0.3078546736858785,-1.223884207585454,0.4269201751798391
1682361371076242700,10.27124267578125,-0.18536811170205472,-0.9134504771918058,0.44202538985311984
1682361371096371700,10.291371826171876,-0.22824776074662803,-0.7779267389804124,0.48523324793875217
1682361371116500700,10.311500732421875,-0.13090192362964154,-0.670915394026041,0.23337036445736883
1682361371136629500,10.33162939453125,-0.22081483426690102,-0.5471732790231705,0.33683249249756336
1682361371156758800,10.3517587890625,-0.30898660032525654,-0.44029520505964753,0.24261983883976934
1682361371176887800,10.3718876953125,-0.48939329022765155,-0.4300923754751682,0.03095978640913963
1682361371197016800,10.392016845703125,-0.5885812480799854,-0.4746721064358949,-0.15660627372860908
1682361371217144800,10.412144775390624,-0.39136838480532166,-0.525552983367443,-0.45822424498200415
1682361371237273600,10.432273681640625,-0.3037362785816192,-0.5008931738853454,-0.46515609007179737
1682361371257402600,10.452402587890624,-0.17798384666964412,-0.5435381373912096,-0.4682452882587909
1682361371277531600,10.47253173828125,0.1577628964178264,-0.5494032300323247,-0.6009212358236312
1682361371297660700,10.49266064453125,0.3585584404848516,-0.7031196275383234,-0.4483832344472408
1682361371317789700,10.512789794921876,0.7277994568951428,-0.6898989114373922,-0.2893862661898136
1682361371337918700,10.532918701171875,0.9743835231907665,-0.4332674983799457,-0.020805472141504286
1682361371358047700,10.5530478515625,1.0305774118386208,-0.17026479672491548,0.1506324600160122
1682361371378176800,10.5731767578125,1.0324398447096348,0.0892798734307289,0.18622165979146957
1682361371398304800,10.5933046875,0.9407875430591404,0.27370763554275035,0.201474758502841
1682361371418433800,10.613433837890625,0.6813866652883589,0.3119984954923391,0.3769324476957321
1682361371438562600,10.6335625,0.4441565566629171,0.38734745872616766,0.5095750775128602
1682361371458691600,10.653691650390625,0.41054947061538694,0.18454642005562782,0.42672260678112506
1682361371478820900,10.67382080078125,0.7843734309017658,-0.16187632308602332,0.12828677269518374
1682361371498950000,10.693949951171875,0.9699807581871748,-0.14112696504592895,-0.012412906849384307
1682361371519078700,10.71407861328125,0.577991611135006,-0.3077431761354208,0.11572481276392936
1682361371539207700,10.734207763671876,0.08892287668660283,-0.24615327366292475,-0.13361059806644915
1682361371559336700,10.754336669921875,-0.42118820739910007,-0.11341419773399829,-0.308971841147542
1682361371579465700,10.7744658203125,-0.7781902122221886,-0.3578863864421844,-0.4139665855824947
1682361371599593700,10.79459375,-0.5505049076639116,-0.7468138078361749,-0.7821066550135612
1682361371619722800,10.81472265625,-0.14817030768617986,-0.8059674230724573,-0.797274998050928
1682361371639851800,10.834851806640625,-0.1484634454138577,-0.625601503571868,-0.4756967733085155
1682361371659980800,10.854980712890624,-0.2778061569027602,-0.5116530528306961,-0.2531850719958544
1682361371680110000,10.875110107421875,-0.4041777436263859,-0.5410398908346891,0.03257014421522617
1682361371700238800,10.89523876953125,-0.4648883790463209,-0.675570526355505,0.01090659393966198
1682361371720367900,10.915367919921875,-0.6118154086731374,-0.5871610060185194,-0.47946109427809713
1682361371740497000,10.935496826171875,-0.6188982065409422,-0.44012978536486624,-0.33430852697789665
1682361371760626000,10.9556259765625,-0.42713250275626774,-0.179915253123641,-0.43110944356322284
1682361371780754700,10.975754638671875,-0.5492863256543874,0.045884968340396876,-0.5736556277573108
1682361371800884000,10.995884033203126,-0.8651765678882598,-0.0382896909058094,-1.003046576964855
1682361371821011700,11.01601171875,-1.0996674608081578,0.040376434051990505,-1.3608195661604403
1682361371841141000,11.03614111328125,-1.0256113138638436,0.31544834368526936,-1.497657309579849
1682361371861270000,11.05627001953125,-0.8259568295907229,0.6076438220769167,-1.6482342400163412
1682361371881399000,11.07639892578125,-0.5906049359273166,0.7344944244891405,-1.8995447503119707
1682361371901527800,11.09652783203125,-0.6592822393774986,0.6353051514625548,-2.2167601036697624
1682361371921656800,11.11665673828125,-0.7064813590563833,0.5099059169024229,-2.6852368625968692
1682361371941785900,11.136785888671875,-0.4242606005817651,0.11756839480400084,-2.5420249079704282
1682361371961915000,11.156914794921875,-0.09210837485492229,-0.012311200040578842,-1.8465707004934548
1682361371982044000,11.1770439453125,0.012084843938797711,0.4458996009379625,-1.2160253107786179
1682361372002173000,11.1971728515625,0.07738017680048942,0.8279232342928647,-0.7045739179998636
1682361372022301000,11.217301025390626,0.015549889700859784,1.0158879383593797,-0.362001420545578
1682361372042430000,11.237429931640625,0.18646606300659477,1.0646370639592408,-0.28292145408987995
1682361372062559000,11.25755908203125,0.18846878113113344,0.9434007942974567,-0.05651917507946491
1682361372082687700,11.277687744140625,0.14218085801303385,0.784712453597784,0.5906447564810514
1682361372102816800,11.297816650390626,0.08486556411981581,0.7733043398767709,0.9417202938646078
1682361372122945800,11.31794580078125,-0.07417443956173957,0.7880477355003357,0.949640565469861
1682361372143075000,11.338074951171874,-0.4019682508833706,0.6617477527081966,0.7301771458119154
1682361372163203800,11.358203857421875,-0.48180151992440223,0.4413035053193569,0.3597083411723375
1682361372183332900,11.378332763671875,-0.5033030115060508,0.5376581394419073,0.22768530455827712
1682361372203462000,11.3984619140625,-0.4894505003076046,0.44094723922759294,0.36491467764377594
1682361372223590000,11.41858984375,-0.27262152080647645,0.503083669666946,0.437774746671319
1682361372243719000,11.438718994140626,-0.01666800701059401,0.5657531840696931,0.7521107452005148
1682361372263848000,11.458847900390625,-0.052154550129175185,0.3456307159811258,0.5556570297300816
1682361372283976700,11.478976806640626,-0.20002390210740267,0.043864276167750356,0.39314299326241015
1682361372304106000,11.49910595703125,-0.06857201644480228,0.21885259428322315,-0.22302432700991628
1682361372324235000,11.519235107421874,0.07643661234006285,0.3756093823984265,-0.3115034054517746
1682361372344364000,11.539364013671875,0.7836117988795042,0.36223552156239747,0.12057751349210738
1682361372364492800,11.559492919921874,1.6347499045431613,0.25194413202404975,0.5127028541445732
1682361372384621800,11.579621826171875,1.6491652372561394,0.04094488158971071,0.5456552756756544
1682361372404750800,11.599750732421874,1.5069260731846092,0.2321583583191037,0.7922393419712781
1682361372424879900,11.6198798828125,1.2119026778906583,0.6137134973794222,1.4085498701065777
1682361372445008000,11.6400078125,1.2923662076592444,0.6663584613740444,1.677246399489045
1682361372465137000,11.660136962890626,1.5274718714766204,0.4991790634438395,1.4719792629659174
1682361372485266000,11.680265869140625,1.364385734209418,0.4737551377214491,1.4248527701318263
1682361372505395000,11.70039501953125,0.9402309320896863,0.7394673905961215,1.9119336917638778
1682361372525524000,11.72052392578125,0.6578827478431165,0.9214417682066559,2.308807103726268
1682361372545653000,11.740653076171874,0.39128888982832427,1.010015100803226,2.2965286369115114
1682361372565781800,11.76078173828125,0.2661976983040571,0.6003554186344147,1.598863767647743
1682361372585910800,11.780910888671874,0.490285855153203,0.3917439401194453,0.942725086992979
1682361372606040000,11.8010400390625,0.580484158603102,0.4299294399984181,0.9608563714891671
1682361372626169300,11.82116943359375,0.4818704935073852,0.6001853227645159,1.2686819652110337
1682361372646298400,11.84129833984375,0.25324630066379905,0.692897362601012,1.1552210057258605
1682361372666426400,11.86142626953125,0.07315773679986595,0.42414895690083504,0.8176853333950043
1682361372686555600,11.8815556640625,0.1494977568976581,0.1300489600621164,0.63464288816154
1682361372706684700,11.9016845703125,0.4301005587816238,0.12386091907694935,0.5902928743034601
1682361372726813400,11.9218134765625,0.3480611579984426,0.19850012660622596,1.0487281316876411
1682361372746942500,11.9419423828125,0.10728490119874477,0.1092854273661971,1.129938095909357
1682361372767071500,11.962071533203124,-0.14225260807499288,0.03898746391162276,1.0160025046497583
1682361372787200500,11.982200439453125,-0.2910457238346338,-0.3149506232962012,0.6335901642382145
1682361372807329500,12.00232958984375,-0.17543153183832763,-0.27950828464552757,0.6044692836940289
1682361372827458600,12.02245849609375,0.09103694623112678,-0.11527122377753257,0.889449423879385
1682361372847587600,12.042587646484375,0.2936347174145281,-0.3227572053939104,0.6553408082753419
1682361372867715600,12.062715576171875,0.42535424103736874,-0.22222148619443177,0.831305862468481
1682361372887844600,12.0828447265625,0.2103928089737892,-0.2278485322959721,0.7783271364748477
1682361372907973600,12.1029736328125,0.10317878105416893,-0.34841362469792364,0.11909224337041377
1682361372928102400,12.123102294921875,0.12322905091419815,-0.2768517787873745,-0.149394442653656
1682361372948231400,12.1432314453125,0.2927367456614971,-0.43409401233196254,-0.6812269446820021
1682361372968360400,12.1633603515625,0.30482714255824683,-0.52403395710662,-0.8635404911190271
1682361372988489700,12.18348974609375,0.43276656312048434,-0.3548199846088886,-0.5778016415208578
1682361373008618500,12.203618408203125,0.4231294045947492,-0.2903323148682713,-0.5433990211814642
1682361373028747500,12.22374755859375,0.29153496865630146,-0.3156244309045374,-0.9525719427466391
1682361373048876500,12.24387646484375,0.4105104537792504,-0.21283567208126186,-1.078042488977313
1682361373069005600,12.264005615234375,0.682119363477081,-0.13791414047926664,-0.9548889875173568
1682361373089133600,12.284133544921875,0.6656658029347657,0.09914967166855931,-0.7117319730609655
1682361373109262600,12.3042626953125,0.735047382196784,0.3866980549067259,-0.3029185324579477
1682361373129391400,12.324391357421876,0.5122269071958959,0.714342886211723,-0.34448622212111946
1682361373149520600,12.344520751953125,0.013578443497419357,0.9037241790778935,-0.6667120971173047
1682361373169649700,12.364649658203126,-0.38037601227834816,0.9100953215450048,-0.8531769180148839
1682361373189778700,12.38477880859375,-0.423504667647928,0.9553023906238377,-0.7073129875749349
1682361373209907500,12.404907470703124,-0.4147738103121519,1.091222580806911,-0.5519049837201834
1682361373230036500,12.425036376953125,-0.48351899136677384,1.1783417690724134,-0.14037819250524045
1682361373250165500,12.44516552734375,-0.7132979072034359,1.2774088770240544,0.25978140152096746
1682361373270294500,12.46529443359375,-0.5585064278118312,1.2780620802357792,0.6183879189312458
1682361373290423600,12.485423583984375,-0.09118950644433498,1.4342024900183081,0.9393255076825618
1682361373310552600,12.505552490234376,0.4594932420045137,1.7084966932773589,1.1031260768294333
1682361373330681600,12.525681640625,0.5496294400036335,1.8357339569196105,1.4070125775367022
1682361373350809600,12.5458095703125,0.09438742570281028,1.6206111968144774,0.8567810799866914
1682361373370938600,12.565938720703125,-0.44097193527743217,1.3489862127646803,0.25473990022242066
1682361373391067400,12.5860673828125,-0.7859832041859627,1.37922791403234,-0.017369652473926543
1682361373411196400,12.606196533203125,-0.8204105205751955,1.1594392079427838,0.10606208140552044
1682361373431325400,12.626325439453124,-0.43286607797220344,1.0992238086938857,0.19336510180532931
1682361373451454500,12.646454345703125,-0.1958316380493343,0.9993062213927507,0.09080898269414901
1682361373471583500,12.66658349609375,-0.02592179224193096,0.8504454472243785,0.03316168036758899
1682361373491712500,12.68671240234375,0.05786898225322366,0.889145180235803,0.17458441348969936
1682361373511841500,12.706841552734375,0.01839797260835767,0.5422480975806713,0.4054629611313343
1682361373531970600,12.726970458984376,0.07601575657948852,0.07594283747375011,0.3833721253544092
1682361373552099600,12.747099609375,0.3481519050218165,-0.036515666970610615,0.37889527220129965
1682361373572228400,12.767228271484376,0.5428916561812162,-0.06948737772405147,0.5496896457582712
1682361373592357600,12.787357666015625,0.4186791471876204,0.12878244725763796,0.60653732213974
1682361373612486700,12.807486572265624,0.004046060520410537,0.0829886643320322,0.7248778703600168
1682361373632614400,12.827614501953125,-0.0994844565808773,-0.10240648150742053,0.5368313332289457
1682361373652743400,12.847743408203126,0.05499824912250042,-0.5650742618948221,0.08759995751976966
1682361373672872200,12.8678720703125,0.3851765444278717,-0.5599567727506161,-0.06862520793676376
1682361373693001200,12.888001220703124,0.6838403420507907,-0.4384966312050819,0.004439443752169609
1682361373713130200,12.908130126953125,0.777988259909302,-0.39751287890970705,0.07519991015195845
1682361373733259300,12.92825927734375,0.5696909619100392,-0.6392331385612487,-0.18252163622975348
1682361373753388300,12.94838818359375,0.3932141588024795,-0.9749193836331367,-1.23653618388772
1682361373773517300,12.968517333984375,0.47079716469869015,-1.100543659120798,-1.0753057574898004
1682361373793646300,12.988646240234376,0.709421211900562,-0.5701233619779348,-0.2141097836703062
1682361373813775400,13.008775390625,0.6837341051973402,-0.3778425482779741,0.12474398552179336
1682361373833904400,13.028904296875,0.22060338347330688,-0.6464139899760485,-0.04371346952021122
1682361373854033200,13.049033203125,-0.3130260119091719,-0.7099409979909658,-0.2833569228976965
1682361373874162200,13.069162109375,-0.4735889873743057,-0.6411375108778476,-0.5091536372303962
1682361373894290200,13.089290283203125,-0.32531390413939953,-0.7619944258332252,-0.36744565742611884
1682361373914419500,13.10941943359375,0.011155088808014989,-0.6912339594334364,-0.388217811819911
1682361373934548500,13.129548583984375,0.17919453763365745,-0.985758173033595,-0.48542438659667964
1682361373954677200,13.14967724609375,0.34415596725344655,-0.977639748507738,-0.39627252345979214
1682361373974806300,13.16980615234375,0.3642543871041387,-0.7597434320360422,-0.23365736470520496
1682361373994935300,13.189935302734375,0.27467100068219,-0.7279331662774086,-0.09000234248638153
1682361374015064300,13.210064208984376,0.2388742225706577,-0.7005073992133141,-0.631226357716322
1682361374035193000,13.230193115234375,0.038742768435552716,-1.115165474191308,-1.2616998512387274
1682361374055322400,13.250322265625,0.19501586468704044,-1.1031687469273805,-0.3123129682689905
1682361374075451400,13.270451416015625,0.5120902752041816,-0.7728028200954198,0.32132454224228857
1682361374095580400,13.290580322265624,0.40594760284312065,-0.3118073568344116,0.41169104186594485
1682361374115709200,13.310709228515625,-0.11008476105034351,-0.1986994485706091,0.18795301362872122
1682361374135838200,13.330838134765624,-0.5201807888098061,-0.013220131579041481,-0.07895254068374634
1682361374155967200,13.35096728515625,-0.7047292546920478,-0.16669395250082014,-0.019690204375982283
1682361374176095200,13.37109521484375,-0.657706514493376,-0.3010112375319004,-0.12922083867490292
1682361374196224300,13.391224365234375,-0.5603570971798152,-0.1480354292601347,-0.12350070746243
1682361374216353500,13.411353515625,-0.5647766671877354,-0.09024491907060146,0.020266542959213256
1682361374236482300,13.431482421875,-0.5294347201716154,0.06252630653977394,0.1800596300303936
1682361374256611300,13.451611328125,-0.6406757385849953,0.004739888003468513,0.25623335365056993
1682361374276740400,13.471740234375,-0.5630851339042187,-0.24642741442918775,0.13281681734025477
1682361374296869400,13.491869384765625,-0.30506898849010466,-0.2561106040537357,-0.2591495333582163
1682361374316998100,13.511998046875,-0.12035831778347492,-0.2687789469689131,-0.2766425199508667
1682361374337127200,13.532127197265625,0.15463877304792403,-0.16249766985476016,-0.23093875339627265
1682361374357256400,13.55225634765625,0.21130174051225184,-0.15003215603530407,-0.361190104162693
1682361374377385500,13.572385498046875,0.028621698850393295,-0.19681436547636985,-0.545519666597247
1682361374397514200,13.59251416015625,-0.34996026961803434,-0.3090086660265922,-0.7930401369601487
1682361374417643300,13.612643310546876,-0.32342589843571184,-0.40306232973039147,-0.8532616736888885
1682361374437772300,13.632772216796875,-0.14353577975332737,-0.29489480047822,-0.47229193330109115
1682361374457900300,13.652900390625,-0.0039472763210535045,-0.3069716072410345,-0.2921720975160599
1682361374478029300,13.673029296875,0.06550678365528582,-0.22868717507719993,-0.646017684134841
1682361374498158300,13.693158447265626,0.09249752030298113,-0.1238403146803379,-1.0149953734338284
1682361374518287400,13.713287353515625,0.03145487644970417,0.16245383071303365,-1.0297095429629086
1682361374538416400,13.73341650390625,-0.0572245468698442,0.395075422629714,-1.0347615656554698
1682361374558545400,13.75354541015625,-0.001904883773252368,0.5428671062618494,-1.124820606765151
1682361374578674400,13.77367431640625,0.053225394231081004,0.7218214053988457,-1.221326924318075
1682361374598803200,13.79380322265625,0.24051921329870818,0.9557102407723664,-1.4680886852681636
1682361374618932200,13.81393212890625,0.11874971354305744,0.9844482594788074,-1.6330781719386576
1682361374639061000,13.83406103515625,0.06233750596940517,0.9163625652462244,-1.5292781902462242
1682361374659190000,13.85418994140625,0.07367080088853836,0.8869809879392385,-1.5819886206924914
1682361374679318800,13.87431884765625,0.21966683327555656,1.0806897886157034,-1.8095821553140878
1682361374699447800,13.89444775390625,0.49181196874193844,0.9934896440684795,-2.1395991225779056
1682361374719576800,13.914576904296876,0.781619675214216,0.8470826927930116,-2.027084504032135
1682361374739705900,13.934705810546875,0.533240615260601,1.187389583402872,-1.480855812382698
1682361374759835000,13.9548349609375,-0.08445281860046089,1.4133207377701997,-0.6479127041012048
1682361374779963000,13.974962890625,-0.6673919691402465,1.1642442701369524,-0.18643968645632267
1682361374800092000,13.995091796875,-0.22173662528693674,0.5351099162638188,-0.029855624559521673
1682361374820221000,14.015220947265625,0.2120049203455448,0.5093325009286404,0.29506080469489093
1682361374840350000,14.035349853515624,0.32509536601789296,0.9165402599006891,1.4078490283608436
1682361374860479000,14.05547900390625,0.16925949213989078,0.9098083212971687,1.9352648829907177
1682361374880607700,14.075607666015625,-0.12757482503354547,0.4595066860079765,1.696452035218477
1682361374900736800,14.09573681640625,0.04949672909677028,0.2514434890255332,0.8964519961178302
1682361374920865800,14.11586572265625,0.6159965668153018,0.19389993933439253,0.9782149180471896
1682361374940995000,14.1359951171875,1.2123977679312228,0.34812487088441846,1.6700164482355118
1682361374961123800,14.156123779296875,1.377635091882944,0.37387013751566406,2.099808379459381
1682361374981252900,14.1762529296875,0.9977262587249278,0.3459638934582472,1.9028139812409877
1682361375001382000,14.1963818359375,0.30578268971741196,0.17906828090548516,1.1634382144510744
1682361375021511000,14.216510986328124,0.2538655285406858,0.22741554770618677,1.0858481942921876
1682361375041639700,14.2366396484375,0.38560967514812944,0.4013490960717201,1.2799334270656109
1682361375061769000,14.25676904296875,0.6171084005147218,0.4084408078983426,1.9290198511213064
1682361375081898000,14.27689794921875,0.49551498797833915,0.2307709956139326,1.9306722945034502
1682361375102027000,14.297027099609375,-0.06520977347008884,0.12197422854751348,1.239979017817974
1682361375122156000,14.317156005859376,-0.30147827052175996,0.139886609596014,1.2354261768192052
1682361375142284000,14.337283935546875,-0.16006320924945175,0.3882034910336137,1.4118752151370049
1682361375162412800,14.357412841796876,0.30369295089654624,0.31926205675452946,1.4056430427491664
1682361375182541800,14.377541748046875,0.6342780734371394,0.10358926155120134,0.9030734600841999
1682361375202670800,14.3976708984375,0.3809663063216954,-0.0014195114091038704,0.5124000718057156
1682361375222800000,14.4177998046875,-0.025722470277547836,0.11828618768453597,0.10409224263727665
1682361375242929000,14.437928955078124,-0.16299677848331628,0.29169600443691013,0.17222352957725523
1682361375263058000,14.458057861328125,-0.026877485531568525,0.3395297687575221,0.4894996732115745
1682361375283187000,14.47818701171875,0.2769827847559005,0.2813309700280428,0.681823741531372
1682361375303316000,14.49831591796875,0.30777006414234637,0.22408464971780775,0.7542758142799139
1682361375323444700,14.51844482421875,0.019143676409125326,0.13968553406596182,0.587180295240879
1682361375343573800,14.53857373046875,-0.31220994628593324,0.12930033365190027,0.4779956979006529
1682361375363702800,14.558702880859375,-0.329376915794611,0.010578092637658118,0.44413317578732964
1682361375383832000,14.57883203125,-0.22103052284419536,-0.11692016002833842,0.31688919014334677
1682361375403960800,14.5989609375,-0.08104206030890346,-0.03267857302576303,0.5482318481653928
1682361375424089900,14.61908984375,-0.16271679249815643,0.013842647391557692,0.4804986206322908
1682361375444219000,14.639218994140625,-0.09859729848280549,-0.04356090930700302,0.2731517552256584
1682361375464348000,14.659347900390625,0.15004574616923927,-0.1450482301428914,0.15527297929823397
1682361375484477000,14.679476806640626,0.32555779589787126,-0.2781143460690975,0.2588987734675407
1682361375504606000,14.69960595703125,0.5160838748849929,-0.15521934941485524,0.2643248901695013
1682361375524733700,14.719733642578126,0.47221769902110095,-0.025247838503122327,0.572788197273016
1682361375544863000,14.739863037109375,0.33707506908178325,-0.020090017348527906,0.6010626901209354
1682361375564992000,14.759991943359376,0.2401210077613592,-0.17955036533400415,0.4045148666262626
1682361375585121000,14.78012109375,0.3441163658954203,-0.42632849289700386,0.43242111068367955
1682361375605249800,14.800249755859374,0.49046296528577804,-0.3656637424454093,0.5745633902519941
1682361375625378300,14.82037841796875,0.347686625597626,-0.1339721248552203,0.6549409953027964
1682361375645507300,14.84050732421875,0.12505159016624093,-0.16392828717976807,0.5065197815954685
1682361375665636400,14.86063623046875,0.10579378585815429,-0.2782981782034039,0.04938566993772983
1682361375685765600,14.880765625,0.21507599835395813,-0.45231531319916246,-0.05472703096568584
1682361375705894400,14.900894287109375,0.2734305721670389,-0.2989220101676881,0.15521803424060343
1682361375726023400,14.9210234375,0.2462919514812529,-0.03004194091185927,0.19633914918005466
1682361375746152400,14.94115234375,-0.015654665249586103,-0.08854498328492044,-0.008740940338373185
1682361375766281500,14.961281494140625,0.07484203662499785,-0.25239216805249454,-0.33256723626852036
1682361375786410200,14.98141015625,0.17462489163056014,-0.2801870606899261,-0.5803332058250904
1682361375806539300,15.001539306640625,0.2903578877009451,-0.1802162818968296,-0.32115093924105165
1682361375826668500,15.02166845703125,0.42992929386794565,0.21115853264927864,0.1737152294397354
1682361375846797600,15.041797607421875,0.4192414572454989,0.4807679390929639,0.3678741119712591
1682361375866926300,15.06192626953125,0.22520766239836812,0.5452335431322455,0.18063246148228645
1682361375887054300,15.082054443359375,0.12254442965090274,0.6725406571403145,-0.07609773577451706
1682361375907183400,15.102183349609374,0.09230141320899128,0.947433264683932,0.15001052872538564
1682361375927312400,15.1223125,0.14803908252194523,1.2394943030409513,0.2974444849610329
1682361375947441400,15.14244140625,0.1999972332961857,1.5320859411433339,0.12723755590319633
1682361375967570400,15.1625703125,-0.01704772704318166,1.6724018820673225,-0.30645313632488247
1682361375987699500,15.182699462890625,-0.49098421268090603,1.6751637479960917,-0.6161930392354726
1682361376007828500,15.202828369140626,-0.6653354019366204,1.4878388031378387,-0.4369944099485874
1682361376027957500,15.22295751953125,-0.3865139305114746,1.3307526369377969,-0.06750994017124176
1682361376048086500,15.24308642578125,0.06933949368596076,1.3619886099398135,-0.027527473872900006
1682361376068215300,15.26321533203125,0.2374719545572996,1.512042393285036,-0.23901684591174124
1682361376088344300,15.28334423828125,-0.15494272443056106,1.2349512527838349,-0.4041945486307144
1682361376108473300,15.303473388671875,-0.49381768254116176,0.9397793889299034,-0.7313941203862429
1682361376128602600,15.3236025390625,-0.4130301815152168,0.7319026544302701,-0.7491027955561876
1682361376148731400,15.3437314453125,-0.25386603999733925,0.6562137917175889,-0.2981388969659805
1682361376168860400,15.3638603515625,0.02193403778001666,0.6894321707084775,0.1612941392838955
1682361376188989400,15.383989501953126,0.11303294333145021,0.6159095461189746,0.366893284240365
1682361376209118500,15.404118408203125,0.2846878792405128,0.3889449570506811,0.09359656758606433
1682361376229247200,15.424247314453124,0.5112263518512249,0.30699498811662196,-0.12063713472485542
1682361376249376300,15.444376220703125,0.596388341634348,0.3188821175262332,0.07894435737729072
1682361376269505500,15.464505615234375,0.5395721563696861,0.28310616300702096,0.39316695865988727
1682361376289634600,15.484634521484375,0.2772212696868926,0.24636194797754285,0.5186176311463118
1682361376309763300,15.504763427734375,0.10665347142741083,0.2846452091425657,0.5681476779907941
1682361376329892400,15.524892333984376,-0.03462780739739537,0.3228086433202028,0.3703261812984943
1682361376350020400,15.545020263671875,-0.20646423735320568,0.060037996855378147,0.034433015477657314
1682361376370149400,15.5651494140625,-0.04371639212965965,0.006727846950292587,0.32481355340182777
1682361376390278400,15.5852783203125,0.22873101421892642,0.050213937455415726,0.7509475466400385
1682361376410407400,15.605407470703126,0.161358436691761,0.07728899138569831,0.7954056970477104
1682361376430536400,15.625536376953125,0.029819384202361104,-0.023657938963174818,0.7648457236111164
1682361376450665500,15.64566552734375,-0.01100698557421565,-0.0292313551813364,0.5022580324977636
1682361376470794500,15.66579443359375,-0.07625219568386674,-0.28876433489918707,0.2431885786384344
1682361376490923500,15.685923583984374,-0.06360591847002506,-0.5380892243355512,0.3115069125831127
1682361376511052300,15.70605224609375,-0.015367591936513781,-0.6873691006988286,0.18483283578157425
1682361376531181300,15.726181396484375,0.005976809387281536,-0.6455798772394656,0.3572749765455723
1682361376551310300,15.746310302734376,0.2002847450006753,-0.7427239081740379,0.11766893256902694
1682361376571439600,15.766439697265625,0.2589000155765563,-0.9491010517656803,0.024238953721523283
1682361376591568400,15.786568359375,0.24697693807072937,-1.0834832187265158,-0.03847206173539162
1682361376611697400,15.806697509765625,0.3204390646446496,-0.8976958586990833,0.055827101162075995
1682361376631826700,15.82682666015625,0.32025486718416213,-0.7898258510887622,0.09191957428455352
1682361376651955700,15.846955810546875,0.3063140201151371,-0.7637848163813352,-0.13736615120768547
1682361376672084500,15.86708447265625,0.15735212365984916,-0.7174924362838268,-0.2838964366018772
1682361376692213500,15.887213623046875,-0.0347002150464803,-0.5940601178824901,-0.18978782784044743
1682361376712342500,15.907342529296875,-0.17391214025132357,-0.635702041825652,-0.14157178620398045
1682361376732471600,15.927471435546876,-0.2975438536822796,-0.7157476384431123,-0.05818564698696136
1682361376752600600,15.9476005859375,-0.5030768745999783,-0.766431531497836,-0.12682371440529822
1682361376772728300,15.967728271484376,-0.3785959969937801,-0.768384419131279,-0.3121475485742092
1682361376792857600,15.987857666015625,0.04764898233823478,-0.544154807984829,-0.21645020931661127
1682361376812986600,16.007986572265626,0.26478432437479493,-0.3039513826370239,0.08288637300133704
1682361376833115600,16.02811572265625,0.07366086401641368,-0.18114684074521065,0.0021954642176628112
1682361376853244400,16.048244384765624,-0.2647352245360613,-0.25737901655435563,-0.10244389090836048
1682361376873373400,16.06837353515625,-0.19197686231732367,-0.04137187483012676,-0.3702846802443266
1682361376893502500,16.08850244140625,-0.29906711772680283,0.11607318781018257,-0.23597090234458445
1682361376913631700,16.1086318359375,-0.39935529190599917,0.020348960545659062,-0.12066051560044289
1682361376933760800,16.1287607421875,-0.3961732278037816,-0.08567278884947299,-0.1255482876420021
1682361376953889500,16.1488896484375,-0.44033436802625653,-0.25498423037230966,-0.13835866937637328
1682361376974018600,16.1690185546875,-0.3252705764543265,-0.2204401557356119,-0.2251981639176607
1682361376994147600,16.189147705078124,-0.08294716327786446,-0.24884967314004897,-0.34105040245354173
1682361377014276600,16.209276611328125,0.023526348472759126,-0.32784722200930116,-0.2672837399750948
1682361377034405400,16.2294052734375,0.0061106649000197645,-0.3914017025530338,-0.15764555364847183
1682361377054534700,16.24953466796875,-0.05380984305553138,-0.29416531715989114,-0.021012977412343023
1682361377074663700,16.26966357421875,-0.008626300982758402,-0.15085224024653435,-0.11067279007136821
1682361377094792700,16.289792724609374,-0.05868592465929687,-0.0034738135904073715,-0.5924801552146672
1682361377114921500,16.30992138671875,-0.23084939461238682,-0.08020984726846217,-0.8785030824512243
1682361377135050500,16.330050537109376,-0.14616963538825511,-0.09942483534812926,-0.7011421899855137
1682361377155179500,16.350179443359377,-0.03435176693499088,-0.04652326624393463,-0.5607505534768105
1682361377175308500,16.37030859375,-0.0009960253000259398,0.09937164385616779,-0.6558902588516473
1682361377195437600,16.3904375,0.055503933622315524,0.3457733393222093,-0.8421884910106658
1682361377215566600,16.410566650390624,0.08277297575473785,0.41754619763493533,-1.0901134505212307
1682361377235695600,16.430695556640625,0.053273251960799094,0.42423488161861894,-1.2435253121227026
1682361377255824600,16.45082470703125,-0.017222864414379,0.49833822870552535,-1.1419009209036826
1682361377275953400,16.470953369140624,0.14307408052571116,0.5973609129935503,-1.326847153931856
1682361377296082400,16.49108251953125,-0.18363394485320894,0.8351526010245084,-1.3158207330048084
1682361377316211500,16.51121142578125,-0.6102092521181329,1.5083698422521352,-1.9344202488601208
1682361377336340700,16.5313408203125,-1.6049954022705555,1.545771059885621,-2.2261212217330932
1682361377356469500,16.551469482421876,-1.9417969151079653,1.4154115725696086,-2.1684727503627537
1682361377376598500,16.5715986328125,-0.4465583205750212,0.7408592833459376,-1.9921891317397356
1682361377396727600,16.5917275390625,0.9540320784270763,0.723437608423829,-1.0751356616199015
1682361377416856600,16.611856689453123,1.138056520435214,0.7258224577337503,0.4417074099451303
1682361377436984600,16.631984619140624,0.688045392525196,0.38694180053472516,0.39278000516891476
1682361377457113600,16.652113525390625,0.1311532863085158,0.09898702845275402,-0.4908914198309183
1682361377477242400,16.672242431640626,-0.1814163236026652,-0.3532569730758667,-0.7702016976863145
1682361377497371600,16.69237158203125,-0.1394827049702406,-0.547237576431036,-0.17220950105190277
1682361377517500700,16.712500732421876,0.1583662691384554,-0.33794308408796786,0.45698915022909636
1682361377537629700,16.732629638671874,0.28390810877336187,-0.2325666468590498,0.8709247561514377
1682361377557758500,16.752758544921875,0.4344932407826185,-0.32546120365560055,0.7338356683194637
1682361377577887500,16.772887451171876,0.8236363507539033,-0.2467220134615898,0.605970335906744
1682361377598016500,16.7930166015625,1.307003804820776,0.13612170410454272,0.9045844491690397
1682361377618145500,16.8131455078125,1.2706336838006973,0.23265841679573057,1.00497725276649
1682361377638275300,16.833275390625,0.8201689669042825,0.3760942433059215,0.6827998930871486
1682361377658404400,16.853404296875,0.026405191844701765,0.18345044151246548,0.37181028237640856
1682361377678533400,16.873533447265626,-0.5204062681287527,0.4599766416072845,-0.0987257471680641
1682361377698662400,16.893662353515627,-0.3504466648954898,0.1811357348293066,-0.13156710954010487
1682361377718791200,16.913791259765624,0.5916875435322523,0.5196677247211337,0.1546662455767393
1682361377738920200,16.933920166015625,0.8950736935019492,0.6201061210259795,1.0767056874155998
1682361377759049200,16.95404931640625,0.8938626372117549,0.6444152173742651,1.3006108889132737
1682361377779178500,16.974178466796875,0.1859627896595746,0.8299600008174777,0.928207901340723
1682361377799307300,16.994307373046876,-0.4348287563472986,0.8118249169290065,0.4485498231858015
1682361377819436300,17.014436279296874,-0.40579884202219546,1.2322194897323846,0.7736953850209712
1682361377839565300,17.0345654296875,-0.20554083889797328,1.2259893631711603,1.7294132245779037
1682361377859694300,17.0546943359375,0.22149989392161368,0.7415840904891491,1.6810042907178402
1682361377879823000,17.074822998046876,0.15643720077201723,0.3011471388712525,1.0494938553631306
1682361377899952000,17.0949521484375,-0.37827743256390095,-0.1346457863330841,0.42931028518676756
1682361377920081400,17.115081298828127,-0.5517008394502103,0.22510054876208305,-0.01690437304973602
1682361377940210400,17.13521044921875,-0.07629873823933303,0.5247872596919536,0.21692893274426459
1682361377960339200,17.155339111328125,0.5730279243130236,0.3639741819232702,0.35530221516788
1682361377980468200,17.17546826171875,0.9006002018384635,0.34313509977310896,0.21810791339576244
1682361378000597200,17.19559716796875,0.7246475687354803,0.49769569301828737,0.4685001398026943
1682361378020726300,17.215726318359376,0.33497532032355665,0.967162193635106,0.6063362466096878
1682361378040855300,17.235855224609374,0.2348661559730768,0.9312412776872515,0.9342413362860679
1682361378060984300,17.255984375,0.5564876353353262,0.7225291152767837,1.009068905994296
1682361378081113300,17.27611328125,0.7049300379611552,0.5851059731848538,1.0059814613729714
1682361378101242400,17.296242431640625,0.007025368592143058,0.6746037271499633,0.794414347922802
1682361378121371400,17.316371337890626,-0.3649437576077878,0.7184189034789801,0.9059469696938991
1682361378141500200,17.336500244140623,-0.07963307029381395,0.6700405108876526,1.1541940007656812
1682361378161628200,17.356628173828124,0.570637741240859,0.4644060754220932,1.1559615949600934
1682361378181757200,17.376757080078125,0.9123978993989527,0.34487916696146126,0.8129384311288594
1682361378201886200,17.39688623046875,0.33778701674342154,0.4533307007867843,0.7399199566692114
1682361378222015500,17.417015380859375,-0.12261281871199607,0.5783945659127087,1.0056687421619892
1682361378242144300,17.437144287109376,-0.0016192717649042606,0.5357694396184757,0.8616326116710901
1682361378262273300,17.457273193359374,0.3964217226721346,0.037355223067291075,0.5522422528505325
1682361378282402300,17.47740234375,0.5861871925503015,0.16889752695970237,0.5516968939274549
1682361378302531300,17.49753125,0.4766092119783163,0.46590420502535995,0.7754547959089279
1682361378322660000,17.51766015625,0.693617201308161,0.35525494196005164,1.099978426453471
1682361378342789000,17.5377890625,0.8262491636008024,0.0010854936817660927,1.0145914688080548
1682361378362918400,17.55791845703125,0.2284486901462078,-0.16938330118265002,0.39100364314615726
1682361378383047400,17.57804736328125,-0.3684802611708641,-0.11989049934232607,-0.05130173269212246
1682361378403176200,17.59817626953125,-0.11419570350050925,0.028921047123149034,0.01151040505170822
1682361378423305200,17.61830517578125,0.37911972860693927,0.02465323361083865,0.5204197121322155
1682361378443434200,17.638434326171875,0.4844876902684569,-0.15153698937399313,0.7461854468047618
1682361378463563300,17.658563232421876,0.19582856930941342,-0.06475853170440532,0.40461540439128874
1682361378483692300,17.6786923828125,-0.16393910083472726,0.2324492675570771,0.030168928292393683
1682361378503821300,17.6988212890625,-0.014287468549609184,0.29190988464960826,-0.03239128051698208
1682361378523950300,17.718950439453124,0.21558920857310293,0.19365005622655151,0.12495090627074242
1682361378544079400,17.739079345703125,0.43013095391988754,0.014779891709052025,0.37845512721836566
1682361378564208400,17.75920849609375,0.6976365199521184,-0.05399954780819825,0.24610534286797045
1682361378584337200,17.779337158203123,0.8693287191316484,-0.04880859156898223,0.04207856179475784
1682361378604466200,17.799466064453124,0.7730193854555487,0.21005206924472003,-0.021457214048504827
1682361378624595200,17.81959521484375,0.45946138556152577,0.3337490664642304,-0.11748831530511379
1682361378644724500,17.839724365234375,0.14130495196133852,0.33438126342054453,-0.05697334858775138
1682361378664853200,17.859853271484376,0.06682371147274971,0.3084109923943877,-0.04369125768840313
1682361378684982300,17.879982177734377,0.3024453619882464,0.473539193415828,-0.22516192356050013
1682361378705111300,17.900111328125,0.1416992119759321,0.6566202536266297,-0.5930372045755385
1682361378725240300,17.920240234375,0.46776598030924793,0.9548463174194097,-0.7364379597723484
1682361378745369000,17.940369140625,0.6890127762526274,1.2855176569387317,-0.5371797082751989
1682361378765498000,17.960498046875,0.6547808363050222,1.6256173345386982,0.3544388763368129
1682361378785627400,17.98062744140625,0.582075957839191,2.264544183629751,0.05187281057834625
1682361378805756400,18.00075634765625,-0.3039291708052158,2.1821438405796885,-1.6359136876255274
1682361378825885200,18.02088525390625,-0.23326018208116292,1.820470482944697,-1.2957517584443092
1682361378846014200,18.04101416015625,0.10945596162751316,1.704248095922172,-0.5466361034065484
1682361378866143200,18.061143310546875,-0.06984861225187779,1.9640067010894418,-0.31269056940972806
1682361378886272300,18.081272216796876,-0.6589929010421037,2.005327137993276,0.017249825486540794
1682361378906401300,18.1014013671875,-1.1826302600465715,1.564342781625688,-0.2559972068071365
1682361378926530300,18.1215302734375,-1.1729942705646157,1.2246852948352693,-0.4403799607336521
1682361378946659300,18.141659423828123,-0.5793816041886806,0.9278934285640716,-0.20123335096240041
1682361378966788400,18.161788330078124,0.3532805000819266,0.8062056157425046,0.662549132218957
1682361378986917400,18.18191748046875,0.9150966369636356,0.7071309090062975,1.0382049841076135
1682361379007046100,18.202046142578126,0.669289984781295,0.6995259869605303,0.13943886582851409
1682361379027175200,18.222175048828124,0.26469080087244506,0.5088748202890158,-0.06633855830430985
1682361379047304200,18.24230419921875,0.558004177378118,0.2327525248199701,0.06557049654126167
1682361379067433500,18.26243359375,0.9618255087822675,0.019715923339128492,0.3846434604644775
1682361379087562200,18.282562255859375,0.6217284615308046,0.2963397385895252,0.4350865305006504
1682361379107691300,18.302691162109376,-0.08102394013032317,0.30144845990538593,0.39298049617707725
1682361379127820300,18.3228203125,-0.4175485357224941,0.220579856467247,0.5062906490147113
1682361379147948300,18.3429482421875,-0.634958968373388,0.2303179911494255,0.217625682836771
1682361379168077300,18.363077392578123,-0.6221189221531153,-0.06956511913537979,0.22638708144128322
1682361379188206000,18.3832060546875,-0.19609891068339347,-0.01912789431810379,0.5299310523211955
1682361379208335000,18.403335205078125,-0.04153261834979057,-0.18472060757875441,0.703627577060461
1682361379228464400,18.42346435546875,-0.2908661294840276,-0.48616029965579505,0.3160603381037712
1682361379248593400,18.443593505859376,-0.5882362340345978,-0.6160925014704466,0.07055413017272949
1682361379268722200,18.46372216796875,-0.43487493357658386,-1.0436322698533533,-0.5285094950854778
1682361379288851200,18.483851318359374,0.4966486681833863,-0.9195353500634431,-0.15425591121017931
1682361379308980200,18.503980224609375,0.6875190305635333,-1.4758523050069807,-0.1293295597463846
1682361379329109200,18.524109130859376,0.6664949472352862,-1.0811404549926518,0.17777239587604998
1682361379349238300,18.54423828125,0.010972644913196564,-0.6993944695353508,-0.12555062572956086
1682361379369367300,18.5643671875,-0.9916535146825015,-0.6997749932855367,-0.9642746555000543
1682361379389496300,18.584496337890624,-0.7471522460103035,-0.8854150537967681,-1.2705062580287456
1682361379409625300,18.604625244140625,0.018676643419265747,-0.8308873447954654,-0.9212836550354957
1682361379429754400,18.62475439453125,0.4276736238956451,-0.8355494913876056,-0.46487259695529937
1682361379449883100,18.644883056640627,0.35715003499165177,-0.6081991178721189,-0.4314958125323057
1682361379470012200,18.66501220703125,-0.028147067075967785,-0.36541853551268577,-0.39986557951569557
1682361379490141200,18.68514111328125,-0.5186521179378032,-0.544089341533184,-0.6874059255778789
1682361379510270500,18.7052705078125,-0.6791131673984229,-0.5233405680149793,-0.5524824913471937
1682361379530399200,18.725399169921875,-0.3115503133334219,-0.566713845795393,-0.2980570639014244
1682361379550528300,18.7455283203125,0.012605945203453301,-0.17348785042464732,0.1323316641718149
1682361379570657300,18.7656572265625,0.039945641419291494,-0.15879004750847817,0.41988896136879916
1682361379590786300,18.785786376953126,0.17111644511818885,-0.34202538496553897,0.14723697235882283
1682361379610915000,18.8059150390625,0.25348273976817726,-0.6060913319379091,-0.24843700068593025
1682361379631044400,18.82604443359375,0.4510856252737343,-0.6358540175169706,-0.22637772909104822
1682361379651173400,18.84617333984375,0.6578374473966657,-0.5935170970469713,-0.16106559122502803
1682361379671302400,18.866302490234375,0.498071248332411,-0.2354857491761446,-0.1567968278646469
1682361379691431200,18.88643115234375,0.05481938542425632,-0.21862229265868663,-0.16413257758021355
1682361379711560200,18.906560302734373,-0.06305120719671249,-0.07593699225485324,-0.35133506510257717
1682361379731689200,18.926689208984374,-0.16101050003692507,-0.10985738203525543,-0.37118250586688517
1682361379751818500,18.946818603515624,-0.2477360128097236,-0.23434593149125574,-0.40541561485826966
1682361379771947300,18.966947265625,-0.28755379006564613,-0.1601426311612129,-0.2830418655991554
1682361379792076300,18.987076171875,-0.3546935817502439,-0.14868541760146617,-0.10117430936396121
1682361379812205300,19.007205322265627,-0.24315131536796689,-0.2777238854467869,0.021418051081895827
1682361379832334300,19.027334228515624,-0.04798515549004077,-0.192877026027441,-0.1337351012289524
1682361379852463400,19.04746337890625,0.15922215531542896,-0.07029518697559833,0.006660042411088943
1682361379872592100,19.067592041015626,0.21209128345474598,-0.1893476828575134,0.08558394152224064
1682361379892721400,19.087721435546875,0.15725976920127868,-0.1940069068402052,-0.261302327477932
1682361379912850400,19.107850341796876,-0.08465148297771811,-0.08913257391452789,-0.42749709828495974
1682361379932979500,19.1279794921875,-0.2400840367518365,-0.03502513615190982,-0.6834609873443842
1682361379953108200,19.148108154296875,-0.2770503700993955,0.24092940153479575,-0.8607312789171934
1682361379973237200,19.1682373046875,-0.4156792347192764,0.4788730652570724,-0.6537023934185504
1682361379993366300,19.1883662109375,-0.6822918704997748,0.6269447348743676,-0.6623761137396097
1682361380013495300,19.208495361328126,-0.8462157737653702,0.5334375991374254,-0.7726087588280439
1682361380033624300,19.228624267578127,-0.909505538958311,0.26839900774061676,-1.2366092491239309
1682361380053753300,19.24875341796875,-0.7468802241358906,0.13505144452452658,-1.7871908752858638
1682361380073882400,19.26888232421875,-0.2930558215480298,0.5618336725383997,-2.440755906060338
1682361380094011400,19.289011474609374,-0.2349999384205788,0.576583497902751,-2.4171201789289714
1682361380114140200,19.30914013671875,-0.12284480083696543,0.7919219465851783,-2.4161755915552376
1682361380134269200,19.329269287109376,-0.043530514168739314,0.8539502404749393,-2.2339123140007255
1682361380154398200,19.349398193359374,-0.2146167102791369,0.8705553383171558,-1.9003584047824142
1682361380174527500,19.369527587890627,-0.4034866195570677,0.8509066349953412,-1.7111778951853513
1682361380194656300,19.38965625,-0.3981032460182905,0.8034381968557834,-1.3819956251800058
1682361380214785300,19.409785400390625,-0.25980010622143745,0.7314993343263864,-0.9999497799932956
1682361380234914300,19.429914306640626,-0.09792078746072948,0.4816723405867815,-0.7235410687983036
1682361380255043300,19.450043212890623,-0.03836677473001182,0.28351825093925,-0.42295770128965376
1682361380275172400,19.47017236328125,0.011872297166660427,0.14779051458835601,-0.23133505923748016
1682361380295301000,19.490301025390625,0.002951251021027565,0.46962592896223065,0.19961071819663045
1682361380315430400,19.510430419921875,0.030127500303462146,0.6545271538048982,0.6321206762075424
1682361380335559400,19.530559326171876,0.3731570938754827,1.1063099675625563,0.708881259804964
1682361380355688400,19.5506884765625,0.5594026459991932,0.9856412686556577,0.9571697919309139
1682361380375817200,19.570817138671874,0.7128418339990079,0.7558136913716793,1.1414537616580724
1682361380395946200,19.5909462890625,0.6653150898009538,0.8080898220539092,1.1545891375631094
1682361380416075300,19.6110751953125,0.3674088325470686,0.8873714485615491,1.1534399675279856
1682361380436204300,19.631204345703125,0.11902787289731204,0.9390198027342558,0.922370281228423
1682361380456333300,19.651333251953126,0.08782682507820427,0.79184420517385,0.8678507555335759
1682361380476462300,19.67146240234375,0.2401040566265583,0.5065753111749887,0.8823053973436356
1682361380496591400,19.69159130859375,0.4942524206966161,0.43707858110070225,1.1351724894315003
1682361380516720400,19.711720458984374,0.67832822756581,0.5320943678349256,1.3652338754713536
1682361380536849200,19.73184912109375,0.7135024898648261,0.8036872031807899,1.4789952792078256
1682361380556978200,19.751978271484376,0.6927263168830424,0.7440469734713435,1.3844570468574762
1682361380577107200,19.772107177734377,0.6942565951902419,0.4199681640848517,1.2466945898085833
1682361380597236500,19.792236572265626,0.8921342059839517,0.4144207590907812,1.1981190672099589
1682361380617365200,19.812365234375,0.668725775027275,0.277796366161108,1.101021213504672
1682361380637493800,19.83249365234375,0.2504465869426727,0.4663566980332136,0.9274778335005044
1682361380657623000,19.852623046875,0.049119712477922434,0.6507777381435036,1.1826695691436528
1682361380677752000,19.872751953125,0.10488609642870723,0.7042872100129723,1.5795301216244697
1682361380697881000,19.892881103515624,0.29775018990933894,0.6001736323267222,1.617633350047469
1682361380718009900,19.913009765625,0.2560423611231148,0.5836641038134693,1.5096598820626734
1682361380738139000,19.933138916015626,0.13569324955940246,0.6631482671558857,1.4281278462797402
1682361380758268000,19.953267822265627,-0.058427565984055393,0.5772539445102215,1.1985434301018714
1682361380778397000,19.97339697265625,0.038174028636887666,0.6671542879268527,1.1809382153064012
1682361380798526000,19.99352587890625,0.22526947558820246,0.5198080099746585,1.190552431347966
1682361380818655000,20.013655029296874,0.39002749159038064,0.5609148041278124,1.236739597505331
1682361380838784000,20.033783935546875,0.3069681001096964,0.6935942588239907,1.2925789736270903
1682361380858913000,20.0539130859375,-0.06918123438432812,0.5849056283071636,1.1466910777896642
1682361380879041800,20.074041748046874,-0.09765037302151322,0.28710838438570496,0.7562251947820187
1682361380899170800,20.0941708984375,0.19392156664431093,0.04657411964833736,0.5925789394140243
1682361380919299800,20.1142998046875,0.14296528638899325,0.2766182622924447,0.8162707904219627
1682361380939429000,20.13442919921875,-0.06359495868459343,0.49242242879047987,0.8117465909957885
1682361380959558000,20.154557861328126,-0.3249639216579497,0.45493046413362026,0.7753285391807556
1682361380979687000,20.17468701171875,-0.24009163553640245,0.0646937137067318,0.38601065716445443
1682361380999816000,20.19481591796875,0.24209610722661018,0.009976911874115467,0.474781996551156
1682361381019945000,20.214945068359373,0.46352585852146144,0.14127981752008198,0.8826654628276824
1682361381040074000,20.235073974609374,0.19056429210565984,0.29302082329988477,0.8743336878120899
1682361381060202800,20.25520263671875,-0.09404358070120215,0.21623452073931693,0.5985819792211056
1682361381080332000,20.27533203125,-0.022907412856817244,-0.04950096688047051,0.19650924504995346
1682361381100461000,20.2954609375,0.41534123493656516,-0.06843611510545015,0.07197510288655758
1682361381120590000,20.315590087890627,0.5984171440482139,0.12803075210750103,0.5604582925319671
1682361381140718800,20.33571875,0.5696900851272046,0.04231953094378114,0.6180179165750742
1682361381160848000,20.355847900390625,0.4142459870457649,0.0004788695581257343,0.3167044812262058
1682361381180977000,20.375976806640626,0.24085706695094702,-0.050557344065606594,0.09910451735258102
1682361381201106000,20.39610595703125,0.4252133712619543,-0.14174538920521734,0.13889584499299526
1682361381221235000,20.41623486328125,0.6532219164252281,0.047965866267681116,0.3044178311049938
1682361381241364000,20.436364013671874,0.5283000901184975,0.11014715876206754,0.3164034524530172
1682361381261493000,20.456492919921875,0.33185105082318184,0.04722995320856571,-0.05891629934906959
1682361381281622000,20.4766220703125,0.30828166692629455,0.06960457436293363,-0.14407587797939778
1682361381301750800,20.496750732421877,0.3396960652351379,-0.09987900885641575,-0.05480535689890385
1682361381321879800,20.5168798828125,0.5531009155064821,-0.026341186697781085,-0.0894108063340187
1682361381342008800,20.5370087890625,0.6123042151033878,0.2830728452593088,0.21178981629014013
1682361381362138000,20.55713818359375,0.31094694061279293,0.4377005123913288,0.21076456489562986
1682361381382267000,20.577266845703125,0.12785897573716937,0.5188683910369872,0.03361760744154453
1682361381402396000,20.59739599609375,0.10565408512651919,0.4890016605615616,-0.11314824027419089
1682361381422525000,20.61752490234375,0.029711905239894986,0.486447592164576,-0.15743629481196403
1682361381442654000,20.637654052734376,0.30954065401144326,0.7039794592380523,-0.26769290529787537
1682361381462783000,20.657782958984374,0.2501082948990166,1.0275161245718598,0.03754734810590744
1682361381482911700,20.677911865234375,0.029373832391947505,1.1925927050039171,0.1342272686600685
1682361381503041000,20.698041015625,-0.07931669782102108,1.2961413422837853,0.032041151905059816
1682361381523170000,20.718170166015625,-0.13114618071429432,1.4142919208899138,-0.17004852362573145
1682361381543299000,20.738299072265626,-0.1844119800209999,1.6977394446805119,-0.22186171297132967
1682361381563427800,20.758427734375,-0.22101474075317382,2.084504135082662,-0.12535481089651584
1682361381583556900,20.778556884765624,-0.3278723564505577,2.2976976806908844,-0.623988223156333
1682361381603686000,20.798685791015625,-0.5518464584659785,1.7033333191648126,-1.1462445030659436
1682361381623815000,20.81881494140625,-0.6459902116060257,1.0838730948269366,-1.1881330952465534
1682361381643944400,20.8389443359375,-0.44186406181156634,0.6539253885194659,-1.1956471241384743
1682361381664073500,20.859073486328125,0.2213022524576634,0.20672581089884043,-0.7383674665302038
1682361381684202500,20.879202392578126,0.6309459333397448,-0.07146189266741275,-0.07840718176066876
1682361381704331500,20.89933154296875,0.5467355451930314,-0.10531740051805973,0.4634685753762722
1682361381724460300,20.919460205078124,-0.05542487703673541,0.3985568350046873,0.7356909407973289
1682361381744589300,20.93958935546875,-0.7701789013326168,0.5906289743900299,0.6436702442258596
1682361381764718300,20.95971826171875,-1.3808902942866086,0.43130058222115036,-0.11941139232218265
1682361381784847600,20.97984765625,-1.4568044901877641,-0.3200941236644983,-0.6736597242981195
1682361381804976400,20.999976318359376,-0.5762853186737745,-0.3672375676333904,-0.5877151327699423
1682361381825105400,21.02010546875,-0.06328731750752777,-0.2525461895704269,0.09239069892764092
1682361381845234400,21.040234375,0.20340777239203453,-0.13912439305186272,0.42424248040318485
1682361381865363500,21.060363525390624,0.06795183871984481,-0.2716740838885307,0.11182196010649204
1682361381885493200,21.0804931640625,0.04084346704185009,-0.537104889473319,-0.36330958053469653
1682361381905622500,21.10062255859375,0.6936264075279236,-0.9084750268667936,-0.28793022216260433
1682361381925751600,21.12075146484375,0.9880927534610032,-1.1147136387705803,0.2974608515739441
1682361381945880300,21.14088037109375,0.8313917141210287,-1.1212485934972762,0.6728647745281457
1682361381966009300,21.16100927734375,0.26993929598517713,-1.052396591067314,0.6500847874432801
1682361381986138400,21.181138427734375,-0.2590659467279911,-0.990861049130559,0.6796873140245676
1682361382006267400,21.201267333984376,-0.463405447012186,-0.8500620008647441,0.7081810025811195
1682361382026396200,21.221396240234377,-0.6917891821634023,-0.6044213528990745,0.9139595957577228
1682361382046525400,21.241525390625,-0.7346779643625021,-0.3739689217150211,0.8047568782389164
1682361382066654500,21.261654541015623,-0.6216594148825854,-0.20206044943630694,0.7746575080513953
1682361382086783500,21.281783447265624,-0.46140338647477325,-0.17843173656761646,0.738471511426568
1682361382106912300,21.301912353515625,-0.2260211707383394,-0.1382961255341768,0.6117851596653461
1682361382127041300,21.322041259765626,0.00576755055077374,0.06385375575125217,0.4971680158823728
1682361382147170300,21.34217041015625,0.18149470433481035,0.10385960292518139,0.3495218782007694
1682361382167299600,21.362299560546877,0.3620061697859317,0.08290975387692451,0.12177870597541332
1682361382187428400,21.382428466796874,0.3958026409257203,-0.11191197647750377,0.09479892911314963
1682361382207557400,21.402557373046875,0.26548509305529294,-0.13177987550795078,0.03819616740345955
1682361382227686400,21.422686279296876,0.13255385555513202,-0.12565525514781475,-0.11206979738771915
1682361382247815400,21.4428154296875,-0.026385902622342108,-0.29500001441836354,-0.044076457613706585
1682361382267944400,21.4629443359375,0.22988902514763174,-0.45861645916998384,-0.2587964821368456
1682361382288073200,21.4830732421875,0.25850071406066416,-0.39471126549243923,-0.17431319533288478
1682361382308202500,21.503202392578125,0.1893090313475579,-0.3924012349843979,-0.16782324879169463
1682361382328331500,21.52333154296875,0.16623685638308525,-0.522960628786683,-0.1779933451503515
1682361382348460500,21.54346044921875,0.1872439885765314,-0.5435282005190849,-0.08460428283512592
1682361382368589300,21.56358935546875,0.2660095553208142,-0.462534509396553,-0.2840133409798145
1682361382388718300,21.58371826171875,0.2229880866527557,-0.2140834801852703,-0.4869868136078119
1682361382408847400,21.603847412109374,-0.05163308353833854,-0.1633235992848873,-0.3753238434553146
1682361382428976400,21.623976318359375,-0.25353107242193074,-0.15706512341201304,-0.2832142995566129
1682361382449105400,21.64410546875,-0.4265595251739025,-0.20454174485802648,-0.16301555624902248
1682361382469234400,21.664234375,-0.48988070841841397,-0.250925310370326,-0.24028876554369924
1682361382489363500,21.684363525390626,-0.47021735551673915,-0.21995383352339268,-0.2161351520180702
1682361382509492500,21.704492431640624,-0.4635866487979889,-0.2613864986300468,-0.08534779467880725
1682361382529621200,21.724621337890625,-0.2230242539446801,-0.1958931589782238,-0.25508885979056356
1682361382549750300,21.744750244140626,-0.0687314813228324,-0.11337620381116867,-0.2556833185523748
1682361382569879300,21.76487939453125,-0.260306302177906,-0.05434884530305862,-0.17938509176969528
1682361382590008600,21.785008544921876,-0.4719336213827133,-0.05097089330255985,-0.3678822952777147
1682361382610137300,21.805137451171873,-0.6666764412820338,-0.08978256225585937,-0.5179845939397811
1682361382630266000,21.82526611328125,-0.7966834618985652,-0.31083705049753185,-0.4491553878635168
1682361382650395100,21.84539501953125,-0.6246219179499894,-0.32841946893930435,-0.574425443086028
1682361382670524200,21.865524169921876,-0.5235375518918037,-0.49576457882523534,-0.5438999564409256
1682361382690653200,21.885653076171874,-0.2741933732330799,-0.5022685538917779,-0.6949597019582986
1682361382710782000,21.905781982421875,-0.020260003620572387,-0.24472470216453074,-0.7465081028878688
1682361382730911200,21.9259111328125,-0.00421140714995563,-0.24497955370843408,-0.7347445998579263
1682361382751040300,21.946040283203125,0.08795885396003722,-0.19040099130272864,-0.9899930341243743
1682361382771169300,21.966169189453126,-0.04378521958217024,0.013223054188489913,-1.012209542107582
1682361382791298000,21.986298095703123,-0.24572065439932048,0.2613660403639078,-1.2223761411100624
1682361382811427000,22.006427001953124,-0.37761341569721696,0.5427268210083246,-1.4989245530366897
1682361382831556000,22.02655615234375,-0.43581944788508115,0.846293003720045,-1.3788292701035738
1682361382851685000,22.04668505859375,-0.4745727377146482,0.9282897344052791,-1.2867723331749439
1682361382871814100,22.066814208984376,-0.5811725427260622,0.9036445379704237,-1.2828203806787728
1682361382891944200,22.086944091796877,-0.7477853562820702,0.779371092569828,-1.2807359756201504
1682361382912073200,22.1070732421875,-0.6539887360792607,0.8114929084956646,-1.3714613716840742
1682361382932202000,22.127201904296875,-0.16931261056661606,0.8802057947158813,-1.2166244457155466
1682361382952331000,22.1473310546875,0.3794202093908563,0.8764747914940119,-0.6311386794328689
1682361382972460000,22.1674599609375,0.783822811281681,1.0098036500096321,-0.17559037566184996
1682361382992589300,22.18758935546875,0.7497942849516868,1.0373989284217358,0.10190437720417976
1682361383012718000,22.207718017578124,0.3327987434694543,0.7652145569235086,0.20985563335716723
1682361383032847000,22.22784716796875,-0.001233341187238693,0.42448213437795634,0.04665829080045223
1682361383052976000,22.24797607421875,-0.12061726098060607,0.24992986959218977,0.06864274359345436
1682361383073105200,22.268105224609375,-0.03572480885386467,0.38823242486715315,0.15801906313598155
1682361383093234200,22.288234130859376,0.03026833354625851,0.5389952332645654,0.5152776730686426
1682361383113363000,22.308363037109373,0.26652090237643566,0.38461540341377254,0.5645031840085983
1682361383133492200,22.3284921875,0.5161211746880784,0.44820144813954826,0.4655430435627699
1682361383153621200,22.348621337890624,0.7505676074117422,0.42641397922337054,0.5401245295554399
1682361383173750300,22.368750244140625,0.8805261127114296,0.5443588061243295,0.6261345875352621
1682361383193879000,22.388879150390625,0.7666939818263053,0.751953508812189,0.8286334283888339
1682361383214008000,22.409008056640626,0.6135112528055906,0.6509393584460019,0.7335334705024957
1682361383234137000,22.42913720703125,0.45717915637586265,0.6881091054111719,0.5622989519625902
1682361383254266000,22.44926611328125,0.5151525853842497,0.7305541624307632,0.6949836673557758
1682361383274395100,22.46939501953125,0.47954292734265325,0.9329320072531699,1.1085258900463582
1682361383294524200,22.489524169921875,0.4737754863897338,0.8354699964106083,1.402342832159996
1682361383314653200,22.509653076171876,0.5038263047277927,1.0192764117538928,1.3101736670285462
1682361383334782200,22.5297822265625,0.23536478967759758,0.9520733455747366,1.4002677794516085
1682361383354911000,22.549910888671874,0.03240410346593708,0.8796125049978494,1.3908815269470214
1682361383375040000,22.5700400390625,-0.08351060584690422,0.5639484727352857,1.614129141318798
1682361383395169300,22.590169189453125,-0.047640872097015376,0.3480588199108839,1.7453437841594217
1682361383415298300,22.61029833984375,0.10745207445919513,0.3150707425445318,1.737722787761688
1682361383435427000,22.630427001953127,0.24813188025951385,0.31848142777085303,1.811170885810256
1682361383455556000,22.65055615234375,0.32703068146202713,0.29200141712427136,1.8269272578686475
1682361383475685000,22.67068505859375,0.2593711036870256,0.194490306442976,1.5396569609194992
1682361383495814100,22.690814208984374,0.07182367518451065,0.0887228240698576,1.0440823517084121
1682361383515943200,22.710943115234375,0.05882398142311722,-0.02181786405444145,0.657847238138318
1682361383536072200,22.731072265625,0.04125321688652038,0.1261146893531084,0.5138157838225365
1682361383556201200,22.751201171875,0.004667991811037064,0.18962737658172846,0.5394248568534851
1682361383576330200,22.771330322265626,-0.10646952969525009,0.24111498723477123,0.26055881563425065
1682361383596459300,22.791459228515624,-0.23245032700300217,0.3784229785144329,0.38844519083499907
1682361383616588000,22.811588134765625,-0.0973403937568888,0.3855962311446666,0.5765870050340891
1682361383636716800,22.831716796875,0.10972118843495846,0.40463410909175873,0.6314338629871606
1682361383656845800,22.851845703125,0.16622461795601992,0.40271775407642124,0.7909978174775838
1682361383676975600,22.8719755859375,0.20148118824362754,0.3651344578742981,1.0037024105250836
1682361383697104600,22.892104736328125,0.13651800994575022,0.31951310890614987,0.9482447271972894
1682361383717233700,22.912233642578126,0.1409194963077083,0.14303016831874846,0.8513777596384287
1682361383737363000,22.932363037109376,0.26515845491681245,0.12523878330141305,0.9640075289964676
1682361383757491700,22.95249169921875,0.3074013038951903,0.07303337976783514,0.9635089318245649
1682361383777620700,22.972620849609374,0.2812503425398841,-0.151776077093184,0.7460399008542299
1682361383797749800,22.992749755859375,0.2548656089613214,-0.2966509964957833,0.5566793585151434
1682361383817878800,23.012878662109376,0.20461660019252448,-0.3454875081181526,0.6003519115030765
1682361383838007800,23.0330078125,0.02289111930914223,-0.09414221877008676,0.7462146728992461
1682361383858136600,23.053136474609374,-0.22216391078829764,-0.04881809918284416,0.5582271724790334
1682361383878265900,23.073265869140624,-0.21736659350916743,-0.11742986311614513,0.4457493788123131
1682361383898395000,23.093394775390625,-0.0016308160722255706,-0.4032864938750863,0.17907237255871294
1682361383918524000,23.11352392578125,0.059219593144580716,-0.4894835988596081,-0.0516483541727066
1682361383938652700,23.133652587890627,0.024768457488343117,-0.27904753526598214,0.2269891389876604
1682361383958781700,23.15378173828125,-0.028556743855401873,-0.060761927215754984,0.2622247030198574
1682361383978910700,23.17391064453125,-0.16284662942290304,-0.03593289864659309,0.03541968842744827
1682361383999039700,23.194039794921874,-0.10406133604235947,-0.20779285560846328,0.003175707426667213
1682361384019168800,23.214168701171875,0.2529517746966332,-0.23034224880784748,-0.04592705391645431
1682361384039297800,23.2342978515625,0.6198351220648736,-0.07939473149329423,0.15724398711025714
1682361384059426800,23.2544267578125,0.801462585933879,0.11166063206493854,0.16953823601603507
1682361384079555800,23.274555908203126,0.7540331646304577,0.2587967743977904,0.1471755975604057
1682361384099684600,23.2946845703125,0.6501197856914251,0.3872337692186236,-0.05235913279056549
1682361384119813600,23.314813720703125,0.6405296081125735,0.5067585587874055,-0.3438981931000948
1682361384139943000,23.33494287109375,0.6029460927147418,0.6846665637418627,-0.28838556471467014
1682361384160072000,23.355072021484375,0.5724526817083359,1.091502274531126,-0.27390286585390566
1682361384180200700,23.37520068359375,0.4070014958102256,1.4565557761237025,-0.15853402692079543
1682361384200329700,23.395329833984373,0.2349835718076676,1.6342770263344049,-0.32233576511144635
1682361384220458800,23.415458740234374,0.2271802776455879,1.5897306131213902,-0.4018646443784237
1682361384240587800,23.435587890625,0.29048750542998314,1.5042182755306361,-0.5001186823815107
1682361384260716800,23.455716796875,0.2668305893801153,1.576011884370446,-0.711454909685254
1682361384280845800,23.475845703125,-0.02136303295902908,1.657363595150411,-0.9246241976350545
1682361384300974800,23.495974853515627,-0.1238322775043547,1.697453613476455,-0.836293003231287
1682361384321104000,23.516103759765624,0.1450346400089562,1.6017033749878407,-0.4739648349493742
1682361384341233000,23.53623291015625,0.3664671677827835,1.49693805539459,-0.040727731707692144
1682361384361361700,23.556361572265626,0.23572606073804198,1.4940850040510296,0.17546470345556736
1682361384381490700,23.57649072265625,-0.3166583039969206,1.336920219656825,0.4015028253287077
1682361384401621000,23.59662109375,-0.6231131208222359,1.115657933883369,0.569307953941822
1682361384421749800,23.616749755859374,-0.5548677790485322,0.8763602252036332,0.5420236411750317
1682361384441878800,23.636878662109375,-0.2211409974813461,0.7433265502423048,0.748596599599719
1682361384462007800,23.6570078125,0.19706103371381758,0.8244359766989946,0.9863491246640682
1682361384482136800,23.67713671875,0.08922492837309837,0.6474281354546546,1.2363520594924688
1682361384502265600,23.697265625,-0.14979776275753975,0.32960195672214027,1.161579434841871
1682361384522394600,23.71739453125,-0.05069733705818653,0.3644663493543863,0.7422825941473246
1682361384542524000,23.73752392578125,-0.12645309099461882,0.36950258995592594,0.3959545435518026
1682361384562653000,23.75765283203125,-0.27988015016522255,0.0919599062949419,0.37177521106302736
1682361384582781700,23.77778173828125,-0.036932979067228734,0.2270019984692335,0.4997668002039194
1682361384602910700,23.79791064453125,-0.04467730958368629,0.03304652955532074,0.8279296640336513
1682361384623039700,23.818039794921877,-0.09332823550608009,-0.06808277162313461,0.8679314195543527
1682361384643169000,23.8381689453125,-0.223420011796616,-0.07398352009952068,0.6569944207012653
1682361384663298000,23.858298095703127,-0.43368492007441817,-0.3242208482056856,0.1789613133996725
1682361384683427000,23.878427001953124,-0.274754514247179,-0.49176995623111724,-0.1670534334629774
1682361384703556000,23.89855615234375,0.24964820310659705,-0.7398357855170965,-0.1944423756480217
1682361384723685000,23.91868505859375,0.5679448488950729,-0.9875509016692637,0.05729834275841712
1682361384743814000,23.93881396484375,0.5813314961474388,-1.0834048927932978,0.23858839136660098
1682361384763943000,23.95894287109375,0.428889356360957,-1.1745447148770094,0.25595629027485844
1682361384784072000,23.979072021484374,0.2346445491116494,-0.9938076239764689,0.03074935852885246
1682361384804201200,23.999201171875,0.10183481909930706,-1.038433532166481,-0.1302104342341423
1682361384824330000,24.019330078125,0.1194569850295782,-1.0161714314758776,-0.20287819555997846
1682361384844459000,24.039458984375,0.20320479716584086,-0.8165940310269594,-0.18519933100640773
1682361384864588000,24.059588134765626,0.162604710425809,-0.5619172591686249,-0.3388736429363489
1682361384884717000,24.079717041015623,-0.13039974626116455,-0.5613029266625642,-0.2444219198256731
1682361384904846000,24.09984619140625,-0.21459011453315616,-0.43848201815783977,-0.34181261899769305
1682361384924974800,24.119974853515625,-0.21345679965429007,-0.426262003532052,-0.27170740163624285
1682361384945104100,24.140104248046875,-0.14016652251593767,-0.3415659507602453,-0.2223439435303211
1682361384965233200,24.160233154296876,0.06515088288970292,-0.1385720198661089,-0.3159218064159155
1682361384985362200,24.180362060546877,0.04097841853313148,-0.13028992921113966,-0.15046002605855463
1682361385005492000,24.200491943359374,-0.012820830063149333,-0.21983225297033784,0.007975216662883759
1682361385025621000,24.22062109375,-0.01242116322107613,-0.42385552691221234,-0.04550152198076248
1682361385045750000,24.24075,0.04504449892826378,-0.4810772973030805,-0.05988485212028026
1682361385065879000,24.260879150390625,0.21872231896705924,-0.4277613021790981,-0.21322247944176195
1682361385086008000,24.281008056640626,0.3545055118322372,-0.3701484866440296,-0.2667418881833553
1682361385106137000,24.30113720703125,0.4524931539840996,-0.35661329776644707,-0.04705401211977005
1682361385126266000,24.32126611328125,0.49251120305247603,-0.27358137881457806,0.2530564771801233
1682361385146395000,24.341394775390626,0.2840864062160253,-0.24795418560504912,0.3837257610976696
1682361385166524000,24.36152392578125,-0.0068155982989817855,-0.24820669906139373,0.3045300593078136
1682361385186653000,24.38165283203125,-0.04728833233229816,-0.015389876833558082,0.404154216620326
1682361385206782200,24.4017822265625,0.010589271618798374,0.13502631008327007,0.7217939328700304
1682361385226911000,24.421910888671874,0.11231244703717529,0.2827642177015543,0.7973743667721748
1682361385247040000,24.4420400390625,-0.04857143094539642,0.33724107329845426,0.6012210955530405
1682361385267169000,24.4621689453125,-0.4353892397742718,0.26153379814624783,0.3009580460399389
1682361385287298000,24.482298095703126,-0.6834965701144188,0.13093933303058147,0.14480886842906474
1682361385307426800,24.5024267578125,-0.5250211415130644,0.1745867515772581,0.02471709262728691
1682361385327556000,24.52255615234375,-0.30073877726607023,0.22868425246775148,0.31678105359375475
1682361385347685000,24.54268505859375,-0.11454057141542434,0.41804479480683804,0.38588673852384087
1682361385367814100,24.562814208984374,-0.17299159134030342,0.3340589361310005,0.32820027323067186
1682361385387943000,24.58294287109375,-0.25571020655930043,0.10084580806195735,0.13089841649830342
1682361385408072000,24.603072021484376,-0.30395247861556707,-0.046893853121995926,0.025830606827139852
1682361385428201000,24.623200927734374,-0.21685177585482596,-0.12649696666896343,-0.03372106781601906
1682361385448330000,24.643330078125,0.038968247754499315,-0.22219898210167882,-0.18070201958715915
1682361385468459000,24.663458984375,0.18035664021559059,-0.29456396108865734,-0.3095166155487299
1682361385488588000,24.683588134765625,0.16421024592630565,-0.35452187844514843,-0.4150181404620409
1682361385508717000,24.703717041015626,0.12954166812710463,-0.2740764688551426,-0.6990162838727235
1682361385528846000,24.72384619140625,0.24209720320515332,-0.09602233342826366,-0.9170698367327451
1682361385548975000,24.74397509765625,0.2919523903507739,0.13288462187945843,-0.9476777409642935
1682361385569105000,24.76410498046875,0.1497002206671983,0.14283143087625502,-0.9292968656212091
1682361385589234200,24.784234130859375,-0.1632883818410337,0.030411504876613614,-1.0453390737712382
1682361385609363200,24.80436328125,-0.3028138299744576,0.07371464003026484,-1.2153583713024854
1682361385629492000,24.824491943359376,-0.30268991133384404,0.480554150211811,-1.006675873377919
1682361385649621500,24.84462158203125,-0.26616080035977063,1.092067507198453,-0.8638444425016641
1682361385669750500,24.86475048828125,-0.442841966933012,1.0069202035278082,-0.6432353599399327
1682361385689879300,24.88487939453125,-0.26598778188042344,0.8669085062474012,-0.5588339062005281
1682361385710008600,24.905008544921873,-0.05052373405694961,0.8988765929162502,-0.7476806537985802
