time,seconds_elapsed,z,y,x
1682361431790949000,0.02594921875,-0.2678220846354961,-0.2270391156092286,-0.3642120823323726
1682361431811078100,0.046078125,-0.2657183903545141,-0.08766074779629707,-0.0031739538609981536
1682361431831207000,0.06620703125,0.38653731138706204,0.16959084298610685,0.38943887804746624
1682361431851336000,0.0863359375,0.8193845385283232,0.043029578909277916,0.7782236761003732
1682361431871465200,0.10646533203125,0.43764147568047046,-0.03519669332653284,-0.48723231280148027
1682361431891594200,0.12659423828125,-0.21558920857310293,-0.2738870837628841,-0.2191764194101095
1682361431911723300,0.14672314453125,-0.30160043559670446,-0.1690598048493266,0.4962462248623371
1682361431931852000,0.16685205078125,0.2135118177771568,-0.18441548715233802,0.9047808485239743
1682361431951981000,0.18698095703125,0.4335106594860553,-0.03207651547938585,1.3362789991438389
1682361431972110000,0.207110107421875,0.29431144763231276,0.28685002571046353,1.0413789379686116
1682361431992239400,0.2272392578125,-0.40574353163838384,0.7118015311658382,-0.21363222928643225
1682361432012368100,0.2473681640625,-0.36057869426608086,0.22802374273240564,0.5895575457662343
1682361432032497200,0.2674970703125,0.14725100088417528,-0.014250935931503773,1.1408996349066496
1682361432052626200,0.287626220703125,0.6719757167339324,-0.0780626061066985,1.3149737607866525
1682361432072754200,0.307754150390625,0.40141514704525466,0.054959670677781104,0.42523675213754175
1682361432092883200,0.32788330078125,-0.7559609908878803,-0.08885843314826487,0.366589332857728
1682361432113012000,0.348011962890625,-0.803535812011361,-0.14518500826507805,-0.18908990870416165
1682361432133141000,0.36814111328125,-0.6611351737678051,-0.5194558355361223,-0.20973405280411242
1682361432153270000,0.38827001953125,-0.49362610549181696,-0.3819491068139672,0.089419574162364
1682361432173399300,0.4083994140625,0.05103080679625272,-0.008324176231026648,-0.029475100809335707
1682361432193528000,0.428528076171875,-0.12423925087004899,-0.1708487340927124,0.12060615506470203
1682361432213657000,0.448656982421875,-0.09386077148020266,-0.20186288103759287,0.22861352531909943
1682361432233786000,0.4687861328125,-0.7477928820013999,-0.5120873525947333,0.4789776946753263
1682361432253915100,0.4889150390625,-1.0121642416611314,-0.18754151021838186,-0.9248866479635238
1682361432274044200,0.509044189453125,-1.818020897835493,-0.4026093252658844,-1.9768331571757791
1682361432294173000,0.5291728515625,-1.4144552947580813,-0.40051235298663374,-1.3593763816148041
1682361432314302200,0.54930224609375,-0.4200508739322424,-0.43452480496466156,-0.5237859736949205
1682361432334431200,0.56943115234375,0.12946166169345377,-0.5031713479503989,-0.0313794731259346
1682361432354560300,0.589560302734375,0.028830080904066562,-0.31346096926033495,-0.3259299902111292
1682361432374689000,0.60968896484375,-0.43262160169184205,-0.10264964261353016,-1.067676577785611
1682361432394818000,0.629818115234375,-0.8781395098358392,0.16962299169003964,-1.735585775732994
1682361432414947000,0.649947021484375,-1.1989163550674915,0.5247086414977907,-1.922871265363693
1682361432435076400,0.670076416015625,-0.87719638376683,0.6568035743042826,-1.47689801466763
1682361432455205000,0.690205078125,-0.08466565763354301,0.24364099858105182,-1.4234668687313794
1682361432475333000,0.7103330078125,0.1824576310828328,0.26429303372651336,-1.4740180753171443
1682361432495462100,0.730462158203125,-0.1359136143118143,0.5661565041735768,-1.1393342852860688
1682361432515591200,0.750591064453125,-0.4347922237291932,0.8910875464752316,-1.6947405551254748
1682361432535720200,0.77072021484375,-0.3469777466759085,0.7481324892193079,-2.699933496469259
1682361432555849000,0.790848876953125,0.2447290860787034,0.5095402984604239,-3.2126287518292664
1682361432575978000,0.81097802734375,1.062891097074747,-0.051936523464322086,-2.6416958270341158
1682361432596107000,0.83110693359375,0.7604667778745293,0.07701923453360796,-1.8650269791603087
1682361432616236300,0.851236328125,0.06918371860235929,0.3540060378775,-0.7099497658193111
1682361432636365000,0.871364990234375,-0.7386743405222892,0.8387012334167957,0.37216742525100704
1682361432656494000,0.891494140625,-1.4077376769408583,0.4931359838873148,0.42107963245809077
1682361432676623000,0.911623046875,-1.4164093514353036,-0.02079144361615181,-0.25969313871562477
1682361432696752600,0.931752685546875,-0.7281997082591056,-0.09149754948019981,-0.16247253541350365
1682361432716881400,0.95188134765625,-0.17651450476944447,0.21260405528247356,0.4141472028464079
1682361432737010400,0.972010498046875,0.13767711685299872,0.3989151469230652,0.9868021291285752
1682361432757139700,0.9921396484375,0.7084510516941547,0.04044102372080088,1.3444815948218107
1682361432777268700,1.012268798828125,1.437328220823407,-0.30161797125339507,1.4971283172696828
1682361432797397500,1.0323974609375,1.6741504793003201,-0.43336832840591666,1.3708517153531312
1682361432817526500,1.052526611328125,1.13147100456506,-0.14431231708377598,1.0681102930277586
1682361432837655600,1.072655517578125,0.6071244743779302,0.1662880020484328,0.9780103353857994
1682361432857784600,1.09278466796875,0.6152496209055185,0.11758914533108472,1.2356588165313005
1682361432877913600,1.11291357421875,0.7801306787654757,0.10103490089327097,1.3997849643707274
1682361432898041600,1.13304150390625,0.8337076629132032,0.09421499174535274,1.2872902195692062
1682361432918170600,1.153170654296875,0.5870315344199538,0.21899331792816518,0.9852443782925605
1682361432938299600,1.173299560546875,0.1874053166180849,0.5041122820623218,0.7971142545312643
1682361432958428700,1.1934287109375,0.03917757965624332,0.6551553687058389,0.9691787941545248
1682361432978557700,1.2135576171875,0.5167930460676551,0.6897080650404095,1.178276887142658
1682361432998686500,1.2336865234375,0.7099149867668747,0.7181130524002015,0.673255819672346
1682361433018815500,1.2538154296875,0.13262626320421694,0.7872858112171292,0.5586906983375549
1682361433038944500,1.273944580078125,0.002011339822411537,0.4825185821525752,1.0458493613809348
1682361433059073800,1.29407373046875,0.36975539567321536,0.04059007680267095,1.752611144813895
1682361433079202600,1.31420263671875,1.0077028783380986,-0.07392389886677264,1.872930299630761
1682361433099331600,1.33433154296875,1.0729758532375098,-0.14613646377101538,0.9652256726145744
1682361433119460600,1.354460693359375,0.7525345235705375,0.08209726845026016,0.418074605423212
1682361433139589600,1.374589599609375,0.5695137056469917,0.42223260188549755,0.7287655254483223
1682361433159718400,1.394718505859375,0.6285977627784013,0.06065086805671453,0.9517220479190349
1682361433179847400,1.414847412109375,0.3103624187231064,-0.003103080581873655,0.6749965258598327
1682361433199976700,1.434976806640625,-0.5225806895583868,0.38680122302025555,-0.030924715095758438
1682361433220105700,1.455105712890625,-1.1102315249204635,0.6699813280463218,-0.1641395918428898
1682361433240234500,1.475234375,-0.718359282246232,0.47773500113785267,0.5728016412764787
1682361433260363500,1.495363525390625,0.163324183806777,0.4518739991724491,0.9901420872062444
1682361433280491500,1.515491455078125,0.4761123683720827,0.35207536207586526,0.7344815650075673
1682361433300620500,1.53562060546875,0.3601198445826769,0.5945270778071134,0.682623951998353
1682361433320749600,1.55574951171875,0.3529433770820498,0.7151459462229162,1.0261801997929811
1682361433340878600,1.575878662109375,0.5192372243493795,0.28375242502130565,1.3082318853110073
1682361433361007600,1.596007568359375,0.5928355445235968,0.013559300405532122,1.1079138956278562
1682361433381136600,1.61613671875,0.6740268040448427,0.048237376685440536,0.6877461173176765
1682361433401265700,1.636265625,0.879094910864532,-0.15235928380861877,0.22211247286200522
1682361433421394700,1.656394775390625,0.9756652335643767,-0.31972645939588545,0.2041746651113033
1682361433441523500,1.6765234375,0.9154320063978433,-0.15562120821401476,0.4601443993896246
1682361433461652500,1.696652587890625,0.6507680935323238,0.10148089109510183,0.5466682521104812
1682361433481781500,1.716781494140625,0.3820709796279669,-0.01636558999791741,0.3056494187265634
1682361433501910800,1.736910888671875,0.641304684138298,-0.4595230526208877,0.09788812730014324
1682361433522039600,1.75703955078125,0.19267010527849196,-0.19600509492009877,0.3740647833049297
1682361433542168600,1.77716845703125,0.06088818394392728,0.03542114973217249,0.2621189045578241
1682361433562297600,1.797297607421875,0.0022515783190727233,0.40320524533241986,-0.15809797359108924
1682361433582426600,1.817426513671875,0.19136720598638057,0.30195903977602717,-0.2736708106637001
1682361433602555400,1.837555419921875,0.40129415101408955,0.024928981812298297,0.275019302663207
1682361433622684400,1.857684326171875,0.7310171037673949,0.11013386088907719,0.5087321969479323
1682361433642813700,1.877813720703125,0.4097983599871397,0.31948738994300363,-0.08414835576117038
1682361433662942700,1.897942626953125,0.22459669089317322,0.5580737354829907,-0.7109130578935146
1682361433683071000,1.918071044921875,0.44613282517194747,0.5198436658099294,-0.9407552482247352
1682361433703199700,1.93819970703125,0.7192243746429682,0.30577041475772854,-0.965692705604434
1682361433723328800,1.958328857421875,0.4505412892639637,0.43653497574329375,-0.9917506914466618
1682361433743457800,1.978457763671875,0.10212912587076425,0.9692053899005055,-1.129555818593502
1682361433763586800,1.9985869140625,-0.1319952718243003,1.2222627438634632,-1.290638360953331
1682361433783715800,2.0187158203125,-0.3143576258391142,1.4551333421051502,-1.5075316378623247
1682361433803844900,2.038844970703125,-0.36178514744639395,1.3228303195059299,-1.5808774445801972
1682361433823974000,2.058973876953125,-0.5972381633967161,1.2087749012589455,-1.60802673279047
1682361433844103000,2.07910302734375,-1.0999003927811979,1.5895517494231461,-1.4143518343836068
1682361433864232000,2.09923193359375,-1.6490370808318255,1.679818295803666,-0.9371984325259923
1682361433884360700,2.119360595703125,-2.0430308457046746,1.342080963420868,-1.0823521688699722
1682361433904489700,2.13948974609375,-1.8520225361585616,0.9077645405098795,-1.3877964204132556
1682361433924618800,2.15961865234375,-1.561604881094396,0.5310942508816718,-1.4246324053794144
1682361433944748000,2.179748046875,-1.5085200643777847,0.09797054488658904,-1.0295289256989955
1682361433964876800,2.199876708984375,-0.8826903050079942,-0.2524076578825712,-0.44694355703294275
1682361433985005800,2.220005859375,-0.1625093602925539,-0.5034989724695682,-0.05049859961569309
1682361434005134800,2.240134765625,0.07939969992935657,-0.4257201517403125,-0.20322364799678325
1682361434025263900,2.260263916015625,0.10904022043347358,-0.3489735966682434,-0.29043489845991133
1682361434045392600,2.280392578125,-0.14507424136698246,-0.20224808096289634,-0.339101021951437
1682361434065521700,2.300521728515625,-0.1734142006665468,-0.5119505744725465,0.3565805645406246
1682361434085651000,2.32065087890625,0.3243105723157525,-0.5935925003707408,0.7000847898870706
1682361434105779000,2.340779052734375,0.49026685819178817,-0.5830979943633079,0.8962719633758067
1682361434125908000,2.360907958984375,0.6251145968377589,-0.8759621657967567,0.6338292336910962
1682361434146036700,2.38103662109375,0.3408247770041227,-0.6779062758266925,0.194079972076416
1682361434166165800,2.401165771484375,-0.048152036489546295,-0.5559773477256298,0.4840063364923
1682361434186294800,2.421294677734375,0.2432446927398443,-0.43073067337870596,0.7095289100587368
1682361434206423800,2.441423828125,0.6399333957850932,-0.43948447319865225,1.037590651601553
1682361434226552800,2.461552734375,0.8401993630200624,-0.655877983891964,1.1836983276695012
1682361434246681900,2.481681884765625,0.7898392950922251,-0.9412111752986907,1.0750836391717196
1682361434266811000,2.501810791015625,0.5264698059514165,-0.7588561278074979,0.6242366449594497
1682361434286940000,2.52193994140625,0.05443477002084255,-0.8392834172189235,0.36931846556067466
1682361434307069000,2.54206884765625,0.24946049851477145,-1.03024788762331,0.08816226757764815
1682361434327197700,2.56219775390625,0.5774135189861059,-0.9902981545507907,-0.06649696373641491
1682361434347326700,2.58232666015625,0.7686383938923478,-1.0779559797376395,0.21270225495994088
1682361434367455700,2.602455810546875,0.9353028280377388,-0.9912532633185386,0.018014964640140532
1682361434387585000,2.6225849609375,0.5082499663889408,-0.7475368614137172,-0.09736147307753562
1682361434407713800,2.6427138671875,0.1577297248005867,-0.8147183002829551,0.10268120679557323
1682361434427842800,2.6628427734375,0.1578594886600971,-0.4243710752189159,-0.3455167342126369
1682361434447971800,2.682971923828125,-0.14606851310133934,-0.15807868436872957,-0.16962182264626025
1682361434468100900,2.703100830078125,-0.5408049130350351,-0.11231237397193908,-0.08647650644779205
1682361434488229600,2.723229736328125,-0.7003565925657749,0.08614975871145725,-0.06774608701467513
1682361434508358700,2.743358642578125,-0.5512529495522379,-0.1039063646763563,0.3871463831961155
1682361434528486700,2.763486572265625,-0.24308555665537712,-0.15295710357129572,0.6425824489891528
1682361434548616000,2.783615966796875,-0.049344753405451774,-0.23421792119741439,0.6805366243302822
1682361434568745000,2.803744873046875,0.045562312257289884,-0.4138625406861305,0.4306102618694305
1682361434588874000,2.8238740234375,-0.3410264370560646,-0.29042437706589697,-0.04632511332333088
1682361434609002800,2.844002685546875,-0.38002383783981203,-0.41963177173733707,0.030498598638176916
1682361434629131800,2.8641318359375,0.007404138776659965,-0.505077181571722,0.025046178451180456
1682361434649260800,2.8842607421875,0.09666486911550164,-0.4679249702632427,-0.027211247530579564
1682361434669389800,2.904389892578125,0.0917027166634798,-0.7844377283096313,-0.052823827692866324
1682361434689518000,2.92451806640625,0.25429683263003827,-0.4890507604002952,-0.5370183802336455
1682361434709646800,2.944646728515625,-0.09067015874534845,-0.45273499991595745,-0.4865858315914869
1682361434729775900,2.96477587890625,-0.10569544005021453,-0.4189204085975885,-0.28568448906242844
1682361434749905000,2.98490478515625,-0.021029928547143934,-0.44038054525554177,-0.06382452965676784
1682361434770034000,3.005033935546875,-0.023250381075590847,-0.6065040043920278,-0.0546112956315279
1682361434790163000,3.025162841796875,-0.1254565177053213,-0.5163233827292919,-0.29571313112378117
1682361434810292000,3.0452919921875,-0.4078453262232244,-0.08470365155637263,-0.46642859422564503
1682361434830421000,3.0654208984375,-0.7180148527227341,-0.10141571690440178,-0.16292553987801073
1682361434850550000,3.085550048828125,-0.5787777930766344,-0.17276479684710502,-0.3718663964778185
1682361434870678800,3.1056787109375,-0.573010023330152,-0.1229080022662878,-0.5515560241520404
1682361434890807800,3.125807861328125,-0.45360067683458327,-0.41417876702845097,-0.1862415335357189
1682361434910937000,3.14593701171875,0.01766921994239092,-0.3519973284035921,-0.12766659497022628
1682361434931066000,3.166066162109375,0.19270079267770052,-0.251188345220685,-0.5335907438725233
1682361434951195000,3.18619482421875,-0.2673033214583993,-0.20994623425006864,-0.575706715068221
1682361434971324000,3.206323974609375,-0.451785590236634,-0.007509937238693237,-0.6814829652696848
1682361434991452000,3.226451904296875,-0.29124621484279634,-0.14462006785869597,-0.9953922628194093
1682361435011581000,3.246580810546875,-0.17720716320872307,-0.1728092205107212,-1.0335755707412957
1682361435031710000,3.2667099609375,0.03456526355519891,-0.029109190106391906,-1.067087379720807
1682361435051839000,3.2868388671875,0.02212488417699933,0.16866788292229173,-1.4220283603608608
1682361435071967700,3.3069677734375,-0.2185714392542839,0.14950900894403457,-1.846676498955488
1682361435092097000,3.327096923828125,-0.44529169817268843,0.20917817248702048,-1.9536042572796344
1682361435112226000,3.34722607421875,-0.5178273575514555,0.39369536644816394,-1.7796990582257508
1682361435132355000,3.36735498046875,-0.3717617670595646,0.8596095814108848,-1.7352414923399686
1682361435152483800,3.38748388671875,-0.5594817025847733,1.1650555865198373,-1.566407020679116
1682361435172612900,3.40761279296875,-0.6901976021230221,1.3226631462454794,-1.1259288602679967
1682361435192742000,3.427741943359375,-0.418425318557024,1.3977595960229634,-0.8784557361781596
1682361435212871000,3.447870849609375,0.07424041747003793,1.210875672930479,-0.7842886752277612
1682361435233000000,3.468,0.7024037343539297,1.0166086538493633,-0.5062491479605437
1682361435253129000,3.48812890625,1.017375546568632,0.8667442555963992,-0.22608605266809462
1682361435273258000,3.508258056640625,0.9525000465542077,0.6315607042372227,0.007881693160533904
1682361435293387000,3.528386962890625,1.0000503177583218,0.4853893152832985,0.06376724651157856
1682361435313515800,3.548515869140625,0.8592764039337635,0.44252983224391934,0.10285948597192764
1682361435333644800,3.568644775390625,0.6072079148776829,0.42053953423202034,0.14532383221387862
1682361435353774000,3.588774169921875,0.061304948051273817,0.47217502892315383,0.16408698487281798
1682361435373903000,3.608903076171875,-0.1415694481164217,0.36660862208008765,0.24545067835152148
1682361435394032000,3.6290322265625,0.012298925080895423,0.6670248163282871,-0.04158171818852424
1682361435414161000,3.649160888671875,-0.14615502234101294,0.6691290951311588,0.0700438425630331
1682361435434290000,3.6692900390625,0.1864035922296345,0.5193856929093599,0.5598053815811872
1682361435454418000,3.68941796875,0.4558871803365648,0.7078367191880941,0.9400888932704925
1682361435474547000,3.709546875,0.6517359156511724,0.5504460170835256,1.430164905065298
1682361435494676000,3.729676025390625,1.0363996882513165,0.6510293748170137,1.4954881488472223
1682361435514804700,3.7498046875,1.1410226767644285,0.9071025694698095,1.8317793740749357
1682361435534934000,3.76993408203125,1.2992197268158197,0.5415057547807693,2.3507442112237213
1682361435555063000,3.79006298828125,1.456673118893057,0.5146282692492008,2.1233757175296546
1682361435575192000,3.810192138671875,1.3227934946268796,0.3448410269081592,1.990140382516384
1682361435595320800,3.83032080078125,1.1194798302590847,0.36447277909517284,1.947424107339978
1682361435615449900,3.850449951171875,0.7141881340414286,0.48135903685390946,1.8942893140017985
1682361435635579000,3.870578857421875,0.43894569014683366,0.1224415537983179,2.1138772368222476
1682361435655708000,3.8907080078125,0.4703257477946579,-0.059307929015159605,1.8273603885889051
1682361435675837000,3.9108369140625,0.3882192731246352,-0.054770870107412335,1.4020248522520065
1682361435695966000,3.930966064453125,0.4767079961776733,0.15539748246073723,1.1034534090876578
1682361435716095000,3.951094970703125,0.3675808281131088,0.2279080073982477,0.9554887069761753
1682361435736224300,3.971224365234375,0.06407485115602612,-0.20622516790032386,1.2237678877294063
1682361435756353000,3.99135302734375,0.03574979716464877,-0.4560317033737898,1.2369582086920738
1682361435776482000,4.01148193359375,-0.03641980538070202,-0.16165303572416304,0.9940876099616288
1682361435796611000,4.031611083984375,-0.17461539314985275,-0.06578560059666633,0.7335445764183998
1682361435816740000,4.051739990234375,-0.3108535632409155,0.04482698372006416,0.6769663646280765
1682361435836869000,4.071869140625,-0.1943291245318949,0.03304302242398262,0.846910258835554
1682361435856998000,4.091997802734375,-0.41139761187732216,0.036432080340385434,0.7270049455165862
1682361435877126000,4.1121259765625,-0.6872989580720663,-0.11937807457447051,0.7569441567063331
1682361435897255200,4.132255126953125,-0.6391594888031482,-0.2735749490737915,0.5497913525670767
1682361435917384200,4.15238427734375,-0.7399766552925109,-0.3198421947300434,0.11335574554502964
1682361435937513200,4.17251318359375,-0.6892506766617298,-0.31720717005133625,0.05556991153061389
1682361435957642000,4.19264208984375,-0.3832113818347454,-0.31994331701695916,-0.021159692406654357
1682361435977771000,4.21277099609375,-0.473565168107301,-0.512432805031538,-0.1632230615198612
1682361435997900000,4.232900146484375,-0.6694786392211913,-0.8914227697789668,-0.2612088039755821
1682361436018029000,4.253029052734375,-0.7033072590649128,-0.9969131887763738,-0.5142798942029476
1682361436038158000,4.273157958984375,-0.39599823656305666,-0.7141004557579755,-0.776124073472619
1682361436058287000,4.293287109375,-0.023944939211010933,-0.2420207039028406,-0.771661248844862
1682361436078416100,4.313416015625,0.12062661333084106,-0.4191922112762928,-0.5137415495425462
1682361436098545200,4.333545166015625,0.1640345240332186,-0.5254693967372178,-0.28894378311932084
1682361436118674000,4.353673828125,0.5674129339754581,-0.35288813976347444,-0.09851824189722537
1682361436138803000,4.373802978515625,0.7846405574053525,-0.2506137602031231,-0.028045944789052007
1682361436158932000,4.393931884765625,0.8309262155011296,-0.21421733569800852,-0.18125965346992015
1682361436179061200,4.414061279296875,0.6387845180109143,-0.18794424580037591,-0.3510848897337913
1682361436199190000,4.43418994140625,0.307705474473536,0.07413432674705982,-0.6167419052898884
1682361436219319000,4.454319091796875,-0.004219078999757766,0.5906465100467204,-0.6055769526749849
1682361436239448000,4.474447998046875,0.10104629907011985,0.8656693198412656,-0.8172995489478111
1682361436259577000,4.4945771484375,0.19938450822532175,0.7151771450787783,-1.1273872423827647
1682361436279706000,4.5147060546875,0.3696808691322803,1.0366074857831,-0.9730670337647199
1682361436299835000,4.5348349609375,0.15518822362422943,1.561623878055811,-0.43709202510416506
1682361436319964200,4.554964111328125,-0.07539543272405862,1.5984212845772503,-0.06099369014501571
1682361436340093200,4.57509326171875,-0.07738193036615848,1.5311258639395235,-0.40503275302052494
1682361436360222200,4.59522216796875,-0.2927466825336218,1.2979074751734734,-0.8541127375602722
1682361436380351000,4.61535107421875,-0.14994067835956812,1.084997130420804,-0.9092664695054292
1682361436400480000,4.63547998046875,0.16960896316468715,1.0969178698390722,-0.5817319667071104
1682361436420608000,4.65560791015625,0.21922727281451224,0.9888625687897205,-0.29519115307629107
1682361436440738000,4.675738037109375,0.1458718214854598,0.7341998254567385,-0.33353052834272384
1682361436460866000,4.695865966796875,0.08073065627217292,0.5975017827689647,-0.46971419176757334
1682361436480995000,4.7159951171875,-0.1492696472302079,0.5929296525478363,-0.677909198436141
1682361436501124000,4.7361240234375,-0.4887389179721474,0.4830968204319477,-0.42830081588327884
1682361436521253000,4.756253173828125,-0.2990454904168844,0.4303051414430141,0.1572632763326168
1682361436541382100,4.776382080078125,-0.11235913572311401,0.3431862454384565,0.7899462625980377
1682361436561511000,4.796510986328125,0.197239312890172,0.1224549978017807,1.094111580246687
1682361436581640000,4.816639892578125,0.0028781857848167417,0.17234511013031004,0.7645394341409206
1682361436601769000,4.83676904296875,-0.22636925352364778,-0.028283845198154446,0.2735258492350578
1682361436621898200,4.856898193359375,0.018153496327996253,0.014891864183545113,0.33860125573575495
1682361436642027300,4.87702734375,0.4422252963393926,-0.11907295414805412,0.5608680423766375
1682361436662156000,4.897156005859375,0.6397074780747294,-0.08404898703992367,-0.00407470209300518
1682361436682285000,4.91728515625,0.2267196743965149,0.06331073491573333,-0.37601650189459324
1682361436702414000,4.9374140625,0.3403419619232416,-0.10927110657989979,-0.027424598020315168
1682361436722543000,4.957543212890625,0.6084025314897299,-0.18978081357777118,0.6044499944716691
1682361436742672000,4.977671875,0.8502952250987291,-0.3104290542185306,1.4319827681422233
1682361436762801200,4.99780126953125,1.3161580021351575,-0.24982699373960493,1.7926637537389993
1682361436782930200,5.01793017578125,1.6766472645521162,0.1302279698908329,1.8138427353680133
1682361436803059200,5.03805908203125,1.200500409388542,0.509722961550951,1.4130910206675529
1682361436823188000,5.05818798828125,0.28725656068474054,0.40599955222606654,0.8760609499961137
1682361436843317000,5.07831689453125,-0.12782558492422103,0.0527028316617012,0.2814215709209442
1682361436863446000,5.098446044921875,-0.208552441804111,-0.1879582743257284,-0.09541150805354118
1682361436883575000,5.118574951171875,-0.07806962036937475,-0.3496872978955507,-0.2601461431801319
1682361436903704000,5.1387041015625,-0.19214169749021529,-0.22329729873239992,-0.348677828592062
1682361436923833000,5.1588330078125,-0.33159459184408185,-0.39712183376550675,0.06725391958355903
1682361436943961000,5.178961181640625,-0.10872954704910516,-0.5580179136425256,0.3449503325015306
1682361436964090000,5.199090087890625,0.3358464040696621,-0.6547346590757369,0.5678501563489436
1682361436984219100,5.21921923828125,0.7358765264973044,-0.7429781751960516,0.7482768661260605
1682361437004348200,5.23934814453125,0.8656360020935535,-0.7047030973374843,0.6384779362797737
1682361437024477000,5.259476806640625,0.562586536732316,-0.5456693042010069,0.3688163612574339
1682361437044606000,5.27960595703125,0.4477572115033865,-0.24489830516576766,0.289310862866044
1682361437064735200,5.2997353515625,0.42754561360180376,-0.022188450932502744,0.7652806078970432
1682361437084864300,5.3198642578125,0.287759249509871,0.10509060602486132,1.0266460637390613
1682361437104993000,5.339992919921875,-0.2443409635439515,0.126719669508934,0.5862754553556442
1682361437125122000,5.3601220703125,-0.9782779002808034,0.2219873851776123,0.1943944448530674
1682361437145251000,5.3802509765625,-1.2399794562093913,0.10178338117301464,0.3601484861552715
1682361437165380000,5.400380126953125,-0.7553951736986637,0.04411035988330841,0.6675111385405064
1682361437185508900,5.4205087890625,-0.16415288971588016,-0.08007657627761364,1.0292401718854904
1682361437205638100,5.44063818359375,0.278540462526679,-0.14464637134373187,0.7519938408225775
1682361437225767200,5.46076708984375,0.38230785712376236,-0.061931263256072996,0.3726835580796003
1682361437245896200,5.480896240234375,0.23067893341630696,-0.0524368742018938,0.13165595686733722
1682361437266025000,5.50102490234375,0.23083602367416023,-0.2394587444603443,0.14223346498310566
1682361437286154000,5.521154052734375,0.2622926536895335,-0.33811376447975633,-0.40414427974820133
1682361437306283000,5.541282958984375,0.040416912192851304,-0.33067455438971516,-0.42282676838636396
1682361437326412000,5.561412109375,-0.24007483053207396,-0.18031214348673819,-0.7831634705901146
1682361437346541000,5.581541015625,-0.5497732323884964,0.15878127968013286,-0.7523509836971759
1682361437366670000,5.601670166015625,-0.6040583648055792,-0.18422259492874143,-0.4689864620149135
1682361437386799000,5.621799072265625,-0.4772425414457917,-0.4471118993371725,-0.3036819180458784
1682361437406927000,5.641927001953125,-0.41725773608237504,-0.5118897841960192,-0.47341655341684813
1682361437427056000,5.66205615234375,-0.45790626507401466,-0.356553676533699,-0.3894669350981712
1682361437447185200,5.68218505859375,-0.15825681741461156,-0.25885493432581425,-0.20666063670814036
1682361437467314000,5.70231396484375,0.1693205016121268,-0.31556992423832414,-0.13215163142979144
1682361437487443000,5.72244287109375,0.3542404311552644,-0.30674598179161544,-0.6291191563040017
1682361437507572200,5.742572265625,0.032440380355715746,-0.27040157973468304,-1.034843398720026
1682361437527701200,5.762701171875,-0.47377428081333633,0.042861821126937864,-1.5903788478970526
1682361437547830000,5.782830078125,-0.5900429911956191,-0.032867081335186954,-1.402245801526308
1682361437567959000,5.802958984375,-0.24586276628375053,0.003743278181552887,-1.2081272510051726
1682361437588088000,5.823088134765625,0.08131883142367005,0.4776198503255844,-1.2172066295176744
1682361437608217000,5.843217041015625,0.15400982749462128,0.6260112534165382,-1.0183785861313341
1682361437628345900,5.863345947265625,0.06973053883016109,0.8423357905268669,-1.4712170464217662
1682361437648475100,5.88347509765625,-0.29188159013688564,1.2451911995083094,-1.8790952520012854
1682361437668604200,5.903604248046875,-0.2411085574939847,1.4601689981848,-1.6921990539491176
1682361437688733700,5.923733642578125,-0.17798165471255778,1.8749802178978918,-1.1814788980543613
1682361437708862500,5.943862548828125,-0.5315278199933469,2.007889389696717,-0.7037532492667437
1682361437728991500,5.963991455078125,-0.9596662849217653,2.1219524067282673,-0.47658875371217724
1682361437749120500,5.98412060546875,-1.2853934460371732,2.0112720178723333,-0.6678992610752582
1682361437769249500,6.00424951171875,-0.5144726402960718,1.4111983387887477,-0.627160423451662
1682361437789378300,6.02437841796875,0.5210768608666956,0.6998650096565484,-0.376636095097661
1682361437809507600,6.044507568359375,1.1004584650553761,0.14770926604568957,0.19826865593791007
1682361437829636600,6.06463671875,1.2259326645478605,-0.1899322047472,0.9089952513486146
1682361437849765600,6.084765625,1.071639636197686,-0.33949732779264447,1.107670149999857
1682361437869894400,6.104894287109375,0.9456833522766828,-0.542770660150051,1.1566478236585855
1682361437890023400,6.1250234375,0.9972796840012073,-0.5164081384032965,1.0758312426686287
1682361437910152400,6.14515234375,1.0318436323821545,-0.4428361217141151,0.9897077874422073
1682361437930280400,6.165280517578125,0.9640729954481124,-0.26131518695950506,0.6491331858068704
1682361437950409500,6.185409423828125,0.9457777525618671,-0.09598317046165465,0.21747896784245965
1682361437970538500,6.20553857421875,0.9349041841089725,-0.024693711751699446,-0.23345687369704246
1682361437990667500,6.22566748046875,1.4863159774847328,-0.23480653474032878,-0.07427344295680523
1682361438010796500,6.245796630859375,1.8566779607489703,-0.2911462615996599,0.4784259060114622
1682361438030925600,6.265925537109375,1.2620523179382086,-0.3443821772247553,0.9886983181387186
1682361438051054600,6.2860546875,0.3051240796782076,-0.11608429372608661,0.842643249040842
1682361438071183400,6.306183349609375,-0.10790507892370223,0.18639175566136837,0.6410252826750278
1682361438091312400,6.3263125,-0.003369184172153473,0.23949556933939456,0.4075409364491701
1682361438111441700,6.346441650390625,0.03908420228436589,0.23563889391124246,0.5823743562638759
1682361438131570700,6.36657080078125,-0.009302081352472305,0.1669932277083397,0.9547872807085513
1682361438151699500,6.386699462890625,-0.5169651877641678,-0.0035550621330738066,0.950718423834443
1682361438171828500,6.406828369140625,-0.6614910014681518,-0.07928864077031612,0.9066554102241993
1682361438191957500,6.42695751953125,-0.27788389831408855,-0.19394202491044998,1.1903817509561776
1682361438212086500,6.44708642578125,0.03739478789269924,-0.3016343378663063,1.412079797798395
1682361438232215300,6.46721533203125,0.14317586039975286,-0.2723725875467062,1.1060182911396026
1682361438252344600,6.487344482421875,-0.17685352746546268,-0.24809271729290483,1.0302028794378042
1682361438272473600,6.5074736328125,-0.04538637116849422,-0.22461247298419473,1.1393874767780303
1682361438292602600,6.5276025390625,-0.03651376727446914,-0.2381219428986311,1.1298434033632279
1682361438312731400,6.5477314453125,0.12160524910464882,-0.30025194359719753,1.0809610067725182
1682361438332860400,6.5678603515625,0.3318191943801939,-0.1197027764841914,0.6757283472657203
1682361438352989400,6.587989501953125,0.14292904603183268,0.05932195754051208,0.6177092890173197
1682361438373118500,6.608118408203125,-0.09063187256157397,0.4150876985669136,0.3975514573544264
1682361438393246500,6.62824658203125,-0.23086744172573087,0.6901105083614587,0.6013163726210594
1682361438413375500,6.64837548828125,-0.31569092026948925,0.47773500113785267,0.9541355388015508
1682361438433504500,6.66850439453125,-0.12337503525614738,0.41845775952190156,0.8296002275943756
1682361438453633500,6.688633544921875,-0.1033972461104393,0.1335170745640993,0.971086089080572
1682361438473762600,6.708762451171875,-0.1208781038738787,0.16424246769547463,0.8620283329904079
1682361438493891600,6.7288916015625,-0.07253609777018427,0.47706864618360995,0.815910140416026
1682361438514020400,6.749020263671875,-0.09669804073274135,0.2044628344029188,1.262495385530591
1682361438534149400,6.7691494140625,0.2647854934185743,-0.024873159971833227,1.121661265951395
1682361438554278700,6.789278564453125,0.6168186237879097,-0.16955489488989114,0.8594266260594129
1682361438574407700,6.80940771484375,0.7982068720735609,-0.2791585944250226,0.7601701330155134
1682361438594536400,6.829536376953125,1.0460453223444521,-0.19447130948156116,0.6395388435095548
1682361438614665500,6.84966552734375,1.0899147130787372,-0.4593921197175979,0.5550900434970856
1682361438634794500,6.86979443359375,1.18096349587813,-0.5039057997047901,0.04611176283359527
1682361438654923500,6.889923583984375,0.9033554918959736,-0.29815000288188453,-0.4467927503854036
1682361438675052300,6.91005224609375,0.3013334552235901,0.021328034710884094,-0.6233224527239799
1682361438695181000,6.93018115234375,0.10024915734305977,0.15826573137342928,-0.8174456794202327
1682361438715310000,6.95031005859375,0.009949585475772618,-0.07902385235428809,-1.0078186136722564
1682361438735439000,6.970439208984375,0.15644319212138652,-0.4791273322790861,-0.9498574230909347
1682361438755568000,6.990568115234375,0.21139906340688466,-0.6111024380981922,-0.7586006917417049
1682361438775697000,7.01069677734375,0.08690992942899466,-0.4412725256592035,-0.8103384777635335
1682361438795826200,7.030826171875,-0.03722790689319372,-0.25549510250389573,-0.7243126376926898
1682361438815955200,7.050955078125,0.20661212139129637,-0.18958499874472617,-0.6469418132424354
1682361438836084200,7.071084228515625,0.45423970539048314,0.019455226576328276,-0.6764853031128645
1682361438856213000,7.091212890625,0.45309214279055593,0.04910860656201839,-0.4079232137650251
1682361438876342000,7.111342041015625,0.2184168332144618,0.40012276914715766,-0.5797825862050056
1682361438896470000,7.131469970703125,-0.09812003635987639,0.6744377229332923,-0.5940875904113054
1682361438916599000,7.15159912109375,-0.1722422342777252,0.9833481892824172,-0.5871387941867112
1682361438936728000,7.17172802734375,-0.03438099302947521,1.4272212528288364,-0.6956295640438794
1682361438956857000,7.191857177734375,0.014431991586834192,1.9523925434023142,-0.8146464040905237
1682361438976986000,7.211986083984375,-0.6771978352963924,2.519505617648363,-1.175860473650694
1682361438997115100,7.232115234375,-1.8240645619139073,2.5991215906769036,-1.076429208561778
1682361439017244200,7.252244140625,-1.8861577377334235,2.2024293805003166,-1.1193588342279195
1682361439037373200,7.272373291015625,-0.8314400102421641,1.5244383489996194,-0.8809177423775195
1682361439057502000,7.292501953125,0.1504085881322622,1.007670145112276,-0.41862990121841426
1682361439077631000,7.312630859375,0.4703121576607227,0.8176046693742275,-0.2510825467586517
1682361439097760000,7.332760009765625,0.0789070941068232,0.6065127722203731,-0.6052081193625927
1682361439117889300,7.35288916015625,-0.100485596447438,0.19015841471850872,-0.5788152024775743
1682361439138018000,7.37301806640625,0.46652913199067114,-0.31135493689179417,-0.20020400791466236
1682361439158147000,7.39314697265625,0.9208243669606745,-0.4917985978037119,0.1581651936084032
1682361439178276000,7.413276123046875,1.0718728604316712,-0.45943186720609663,0.24648995827138423
1682361439198405000,7.433405029296875,0.6271320741400123,-0.27712241242229935,0.29790742629766465
1682361439218534000,7.453533935546875,0.28538492159396406,-0.06799333977401256,0.1896358521491289
1682361439238663200,7.4736630859375,0.49282063432782885,-0.04120703965723514,0.47406245010495185
1682361439258792200,7.493792236328125,0.4939698043629527,-0.05713116949796676,0.675387571004033
1682361439278921200,7.513921142578125,0.1747324436582625,-0.11886311078965663,0.6039022974610329
1682361439299050000,7.534050048828125,-0.5035825590997934,-0.10000935723781586,0.29926877777874467
1682361439319179000,7.554178955078125,-0.9065300302788615,-0.14514029234051704,0.40562896534800524
1682361439339308000,7.57430810546875,-0.647254970844835,-0.12070143213272094,0.9875129077464342
1682361439359436000,7.59443603515625,-0.2076891029730439,-0.42187750483751296,1.432498316448927
1682361439379565000,7.61456494140625,0.15148615423589945,-0.6510200224667787,1.4885101265281437
1682361439399694000,7.634694091796875,0.32811376399099823,-0.6571756224870682,1.4683552272498608
1682361439419823000,7.654822998046875,0.7063193003624677,-0.5165770652294158,1.3305109371364117
1682361439439952100,7.6749521484375,0.8678504632726312,-0.48747839651703834,1.2830115193367004
1682361439460081200,7.6950810546875,0.8688198928266763,-0.7093237428754567,1.2598223669290542
1682361439480210200,7.715210205078125,0.9447451946437359,-0.9039040656894445,0.9574608838319778
1682361439500339000,7.7353388671875,0.8910358162879943,-0.9887573548495769,0.6349713894635438
1682361439520468000,7.755468017578125,0.840989052093029,-0.8166489760845899,0.5836906995594501
1682361439540597000,7.775596923828125,0.7935299663037061,-0.40356443403363224,0.6854314106345176
1682361439560726300,7.795726318359375,0.4161202564850449,-0.016934183666110037,0.9564671966195106
1682361439580855000,7.81585498046875,0.1878987992234528,0.03759060272574424,0.9226713100016116
1682361439600984000,7.835984130859375,-0.10640095797106623,0.19216917001903056,0.5014291804581881
1682361439621113000,7.856113037109375,-0.27727847976684566,0.0915980872452259,0.43101065936386584
1682361439641242000,7.8762421875,-0.1826391251295805,0.3797176945000887,0.14002338771820066
1682361439661371000,7.896370849609375,-0.34765170041471716,0.21696575762331485,0.27589316288828847
1682361439681500200,7.916500244140625,-0.1595598628371954,0.14894319175481796,0.33476854570508
1682361439701629700,7.936629638671875,0.07108385313525796,0.06910334684252739,0.0993710593342781
1682361439721758700,7.9567587890625,0.10537380688041448,-0.05683130976855755,-0.1677677192121744
1682361439741886700,7.97688671875,-0.047643210184574125,-0.17890870642960072,-0.38856677138805384
1682361439762015500,7.997015380859375,0.04026552102342248,-0.3932973070412874,-0.23733868356645105
1682361439782144500,8.01714453125,0.32956644701734183,-0.6152227328985929,0.14270751223564146
1682361439802273500,8.0372734375,0.5528267747402191,-0.6147884331345558,0.1466892753481865
1682361439822402600,8.057402587890625,0.32294512918144463,-0.5828676927387714,-0.020509704065322876
1682361439842531600,8.077531494140626,-0.01793663870692253,-0.5272369909316301,-0.19858663584589958
1682361439862660600,8.09766064453125,-0.2809396326228976,-0.38731647906601424,-0.11114742184579372
1682361439882789600,8.11778955078125,-0.30781609524115916,-0.4015782286524772,0.09793547357320785
1682361439902918700,8.137918701171875,-0.16688450663685797,-0.41974399994015693,0.18623159666359423
1682361439923047400,8.15804736328125,-0.16409633722305297,-0.40646600069403643,0.15696049399375914
1682361439943176400,8.178176513671875,-0.27430589369684455,-0.3319984964698553,0.1296300039976835
1682361439963305500,8.198305419921875,-0.3976455653786659,-0.13300269530117512,-0.08026303876042365
1682361439983434800,8.218434814453126,-0.635868046042323,-0.1249731181025505,-0.06147825879156589
1682361440003563500,8.2385634765625,-0.5580814803980291,-0.15200667097866535,-0.0959112742692232
1682361440023692500,8.258692626953126,-0.3799485806465149,-0.2292202590405941,-0.25396540871858597
1682361440043821600,8.278821533203125,-0.17840660212635992,-0.1518950272977352,-0.5862345388233662
1682361440063950600,8.29895068359375,-0.2938356468141079,-0.10741466505825518,-0.7950093912065028
1682361440084079600,8.31907958984375,-0.48375265399217604,0.06009703356623649,-0.8639619314014911
1682361440104208400,8.33920849609375,-0.35649405530095096,0.05553016404211521,-0.9414859005868434
1682361440124337700,8.359337646484375,-0.017140519893169403,0.08544073365926742,-0.8670400236725807
1682361440144466700,8.379466796875,0.06918167277574538,0.0747276164650917,-0.7020382620424032
1682361440164595700,8.399595703125,-0.1006435634881258,0.16931377961039543,-0.8806839336216449
1682361440184724500,8.419724365234375,-0.33036110452637074,0.25242051736414434,-0.6563128681778907
1682361440204853500,8.439853515625,-0.2817380895242095,0.22366847013235092,-0.5886953759789466
1682361440224982500,8.459982421875,-0.025739129151403903,0.2511439215570688,-0.8090385010808706
1682361440245111600,8.480111572265624,0.16329685740843414,0.22394377994239328,-1.183133679524064
1682361440265240600,8.500240478515625,0.2187631624341011,0.4527922830611467,-1.4946376694977284
1682361440285369600,8.52036962890625,0.2012128926962614,0.7362579270303249,-1.4288468082040549
1682361440305497600,8.54049755859375,0.06877557619288563,0.9436246661812067,-1.6439964563161134
1682361440325626600,8.560626708984374,-0.2614559106044471,1.0283967067986726,-2.1348726785778998
1682361440345755600,8.580755615234375,-0.6152971133090556,1.0907108318924903,-2.3093758435249327
1682361440365884400,8.600884521484375,-0.8843113303385675,1.196156827226281,-2.4383728103160855
1682361440386013400,8.621013427734376,-0.9544998420692979,1.337781804922223,-2.359575752454996
1682361440406142500,8.641142578125,-0.5256583434380591,1.2846470115840434,-1.6257827542334795
1682361440426271700,8.661271728515626,-0.0005086801744997501,0.782925570181012,-0.6747136172652244
1682361440446400800,8.68140087890625,0.3136848411440849,0.22446809607744217,0.132588853803277
1682361440466529500,8.701529541015624,0.5053735341697931,-0.13643091618418693,0.6859960587799548
1682361440486658600,8.721658447265625,0.6478934148788452,-0.36463527618050573,1.0065279893398285
1682361440506787600,8.74178759765625,0.9943461147673427,-0.37494741135835646,0.9572159691601991
1682361440526916600,8.76191650390625,1.3795407793737948,-0.09354162252843379,0.8266244266539812
1682361440547045400,8.78204541015625,1.4774470268525182,0.017298925325274467,0.7718477113276719
1682361440567174700,8.802174560546876,0.9112135119199752,0.26347557986378667,0.8606529529839754
1682361440587303700,8.8223037109375,0.33646132109761234,0.42556233083009715,1.0628484269768
1682361440607432700,8.8424326171875,0.23365853374898432,0.43328094238340853,1.2729665106624364
1682361440627561500,8.8625615234375,0.5683804638333618,0.4142582620054483,1.3606371953308583
1682361440647690500,8.8826904296875,0.6895807853989303,0.2699889072805643,1.5276614026993511
1682361440667819500,8.902819580078125,0.4567934815265238,0.27798049055635926,1.5214660551905632
1682361440687948800,8.92294873046875,0.3678834643214941,0.4708136774420738,1.504172390562296
1682361440708077600,8.94307763671875,0.5579046625263988,0.5033826526135206,1.5273399156600236
1682361440728206600,8.96320654296875,0.7724006690353155,0.5131628728717565,1.4477981769114732
1682361440748335600,8.983335693359376,0.9328127647876739,0.4034247333019972,1.1716373029977083
1682361440768463600,9.003463623046875,0.5736262555323541,0.333623467323184,0.8620353472530842
1682361440788593000,9.023593017578126,0.4798701134704053,0.40517712992727756,1.0469459244459867
1682361440808721700,9.0437216796875,0.6313656200565397,0.30488135696351526,1.3220353697359561
1682361440828850700,9.0638505859375,0.661080374840647,0.07682663457095623,1.5997043101251125
1682361440848979700,9.083979736328125,0.5675391907036305,-0.000017535656690597534,1.583205595266819
1682361440869108700,9.104108642578124,0.19911329006850717,0.07722118684649466,1.3184949206501244
1682361440889237800,9.12423779296875,0.3097258743852377,0.28139292934834953,1.3431617443948984
1682361440909366500,9.144366455078124,0.6961258231282234,0.35542847189605237,1.3835019380897282
1682361440929495800,9.164495849609375,0.7505915728092193,0.24206746565401552,1.4624100551098584
1682361440949624800,9.184624755859375,0.6247171219527721,0.260940508428216,0.9903209509044885
1682361440969753900,9.20475390625,0.19524083254933355,0.4249029901385307,0.7069932541012763
1682361440989882600,9.224882568359375,-0.31347792039513583,0.34356209301352497,0.6530652645587921
1682361441010011600,9.24501171875,-0.3478821481697261,0.3955874638050794,0.4139022881746292
1682361441030140700,9.265140625,-0.21596403323486446,0.27792379193305966,0.5550251615673303
1682361441050269700,9.285269775390624,-0.06632642947509884,0.09963350966274738,0.6352671575397253
1682361441070398700,9.305398681640625,-0.13287819213867186,0.15305705681443213,0.3844213421463966
1682361441090527700,9.32552783203125,-0.1859228229753673,-0.021579379123449323,0.38284254852235317
1682361441110656800,9.34565673828125,0.0138521458722651,-0.11566285344362258,0.41886137188673017
1682361441130785800,9.365785888671875,0.10175371668711304,-0.22280630034506319,0.5489578243523836
1682361441150914600,9.38591455078125,0.29840821542665363,-0.4533522550314665,0.6762859811484814
1682361441171043600,9.406043701171875,0.5984855331093073,-0.4277741616606712,0.42138533740639683
1682361441191171600,9.426171630859375,0.6957447148561478,-0.5303367105126381,0.40449265479445456
1682361441211300600,9.446300537109375,0.8056922593928874,-0.572635052537918,0.5591916335970163
1682361441231430000,9.466429931640626,0.8367319791704416,-0.4747340657562017,0.6112257722169161
1682361441251558700,9.48655859375,0.4925165368147194,-0.6286947934120893,0.6443658252745866
1682361441271687700,9.506687744140624,0.16454115838110445,-0.3537649225980043,0.004235445612668991
1682361441291816700,9.526816650390625,-0.07611044912561774,0.048586043992638585,-0.52529754730165
1682361441311945700,9.54694580078125,-0.3395575335472822,-0.014716507616639136,-0.4702338317275047
1682361441332074800,9.56707470703125,-0.5007154792308807,-0.19506664502620696,-0.33301264194846153
1682361441352203500,9.58720361328125,-0.49195291158258914,-0.5276479098200798,-0.26721885804533957
1682361441372332800,9.607332763671875,-0.3861309225432574,-0.5466968936830758,-0.30179858851730823
1682361441392461800,9.6274619140625,-0.3829733352951705,-0.20914368569552896,-0.5425391894817352
1682361441412590800,9.6475908203125,-0.2725428295470774,-0.035599136647582054,-0.46062779899239537
1682361441432719600,9.6677197265625,-0.14102218949720263,-0.09156126236617565,-0.21125439423918724
1682361441452848600,9.6878486328125,0.17024083132743834,-0.3170353206157684,-0.010606149688363075
1682361441472977700,9.707977783203125,0.4544960182391107,-0.2984972088843584,-0.14852350503802297
1682361441493106700,9.728106689453124,0.38424715462327,-0.3641606444060802,-0.21125205615162848
1682361441513235700,9.748235595703125,0.07927519676685332,-0.12054711835384369,-0.5487614249974488
1682361441533364700,9.76836474609375,0.05204860553666949,0.1934130326002836,-0.29346622897982594
1682361441553493800,9.78849365234375,0.3331557036809623,0.3109060240805149,0.22234218996465205
1682361441573622800,9.808622802734375,0.39987507799640293,0.4072638730734586,0.33758126503825187
1682361441593751600,9.82875146484375,0.16771277415454386,0.5779565398216248,0.18032851009964943
1682361441613879800,9.8488798828125,-0.16099954025149343,0.8048398803472518,-0.36261692209541796
1682361441634008600,9.869008544921876,-0.24078853175938128,1.2232768893420696,-0.572103722140193
1682361441654137600,9.8891376953125,-0.14319661092683672,1.020091235268116,-0.33468905072808264
1682361441674267000,9.909266845703126,0.26184359474778174,1.091684645360708,-0.5051771348148584
1682361441694395000,9.929394775390625,0.3885452902086079,1.0681968022674322,-0.34992519830465313
1682361441714524000,9.94952392578125,0.33968218284025786,1.1214274571955203,-0.3643909460306167
1682361441734652700,9.969652587890625,0.023742694637179373,1.3421744869232177,-0.6552361788570881
1682361441754782000,9.989781982421874,-0.1430877437248826,1.3701350915163755,-1.0384610046952962
1682361441774911000,10.009910888671875,0.169702486667037,1.2159656895458697,-1.149166527992487
1682361441795040000,10.0300400390625,0.4104724598564207,1.1390455314725636,-1.0094611201822756
1682361441815168800,10.050168701171875,0.2868589396692812,1.090545412197709,-0.8759849621504545
1682361441835297800,10.0702978515625,-0.06321428880393505,1.0880080026745795,-0.9767512752354145
1682361441855426800,10.0904267578125,-0.18026085169091818,1.191658346763253,-1.0130682047635315
1682361441875555800,10.110555908203125,-0.1885780136592686,1.1365630670070648,-0.7368664143174887
1682361441895684900,10.130684814453126,-0.16484686332941054,0.7272972064614296,-0.1398386788010597
1682361441915814000,10.15081396484375,-0.07868249157071112,0.18290274450182914,0.27128011613488195
1682361441935943000,10.17094287109375,0.10552607483267784,-0.1850970396757126,0.5528408032655716
1682361441956072000,10.191072021484375,0.11572598180770874,-0.25393442905843255,0.4203764526247978
1682361441976200700,10.21120068359375,-0.058319940891116855,-0.19558277785480022,0.27548458208739757
1682361441996329700,10.231329833984375,-0.2783452322155237,-0.3058990095734596,0.287999780267477
1682361442016459000,10.251458984375,-0.17083222134932874,-0.3820692260622978,0.3165910839796066
1682361442036588000,10.271588134765626,0.09129004420936107,-0.39910219392776486,0.4528782077789306
1682361442056716000,10.291716064453125,0.185669724997133,-0.56203825519979,0.6887707841902971
1682361442076845000,10.311844970703126,0.3262801188230514,-0.6776373957574368,0.8622469441771506
1682361442096973800,10.331973876953125,0.3822685480266809,-0.7199491817861795,0.8481365857601165
1682361442117102800,10.352102783203126,0.2850524747692048,-0.6061679043054581,0.8001672123610973
1682361442137232000,10.37223193359375,0.02541135850176215,-0.4523258345931768,0.702167441380024
1682361442157361000,10.39236083984375,-0.23428163408339023,-0.42220308353006836,0.6463093605577945
1682361442177489700,10.41248974609375,-0.31038974512144923,-0.38936172115802764,0.7480787132054567
1682361442197619000,10.432618896484374,-0.2723373701028526,-0.4147153581231832,0.8881348341494798
1682361442217748000,10.452748046875,-0.08585223706960678,-0.4088192858219146,1.0839455755412577
1682361442237877000,10.472876953125,-0.017663082462549207,-0.5887105735480785,1.2025637716591357
1682361442258005800,10.493005859375,0.033727059165388346,-0.7174626256674528,1.226845395478606
1682361442278134800,10.513134765625,0.0992893724001944,-0.5900397763252258,1.0882786363095045
1682361442298263800,10.533263916015626,0.1429303612060845,-0.3769669344872236,0.806214091309905
1682361442318392800,10.553392822265625,0.06509820285439491,-0.3399479941695928,0.6289888079226017
1682361442338521900,10.57352197265625,0.04651990524306893,-0.37876843095123763,0.42097500303983687
1682361442358651000,10.59365087890625,0.23235899545773864,-0.506270775270462,0.4059545440405607
1682361442378780000,10.61377978515625,0.2730693376392126,-0.39237668506503104,0.12041092475354671
1682361442398909000,10.633908935546875,0.09946107570528984,-0.2738789004564285,-0.16503332581222058
1682361442419037700,10.65403759765625,0.0870493378996849,-0.14643793093562124,-0.21735504920184612
1682361442439166700,10.674166748046876,0.13672083904147148,-0.15747954943180084,-0.11164952614903449
1682361442459294700,10.694294677734375,0.22898776545897126,-0.19500234761834143,0.05117079978883266
1682361442479423700,10.714423828125,0.3422492568492889,-0.09905892464518547,-0.06290215411484242
1682361442499553000,10.734552978515625,0.1714334021128714,-0.22204700641036032,-0.04392857357561588
1682361442519682000,10.75468212890625,0.13468188055977223,-0.30143560042381284,0.1782347526907921
1682361442539810800,10.774810791015625,0.2892892355561256,-0.2186930198073387,0.24960078376829622
1682361442559939800,10.79493994140625,0.3652108841113746,-0.10229366878271103,0.23080255979597566
1682361442580068900,10.81506884765625,0.2322730707399547,-0.34075814150869843,0.3041431058168411
1682361442600198000,10.835197998046874,0.15874752354100347,-0.4705477199822664,0.3115601040750742
1682361442620326700,10.85532666015625,0.3456009053647518,-0.3780512225925922,0.3533399751842022
1682361442640456000,10.8754560546875,0.40245340405181046,-0.10937222886681557,0.3124205202966928
1682361442660585000,10.8955849609375,0.3411867421843111,0.13571955304443836,0.1551011298626661
1682361442680714000,10.9157138671875,0.18026070556044577,0.12270984934568405,0.12164543498456477
1682361442700844000,10.935843994140624,-0.10565291608273983,-0.082513448035717,0.19843758276402948
1682361442720973000,10.95597314453125,-0.14755845939815043,-0.07441548177599906,0.28162440001666544
1682361442741102000,10.97610205078125,-0.12061492289304733,-0.10133388383984565,0.12462182044684886
1682361442761230800,10.99623095703125,0.046044542816281314,-0.045510874330997465,-0.12170797882676124
1682361442781359900,11.01635986328125,0.18161577343121169,0.017646131327748296,-0.23749708899855612
1682361442801489000,11.036489013671876,0.2109301307208836,0.08861527204215526,-0.0715296972066164
1682361442821618200,11.0566181640625,0.058655602586269374,0.19716566313207148,0.04967500827312469
1682361442841747000,11.076746826171876,-0.22793372636139392,0.1273614745438099,0.05201835652887821
1682361442861876000,11.0968759765625,-0.6602358868405223,-0.01999532480239868,0.12583294980227946
1682361442882004000,11.11700390625,-0.7351198629111051,-0.04038812448978424,0.06309621538221835
1682361442902133000,11.137133056640625,-0.6085146135620773,-0.2704939341932535,0.20662907252609727
1682361442922262000,11.157261962890624,-0.2979822450995445,-0.29743513261079785,0.21566987259387968
1682361442942391000,11.17739111328125,0.014056436272710561,-0.4624596905946731,0.0992751977443695
1682361442962519800,11.197519775390624,0.2413530337743461,-0.6347972019404172,0.0010223287850618362
1682361442982649000,11.217649169921875,0.38711905679777264,-0.7007488067537546,-0.1319704296439886
1682361443002778000,11.237778076171875,0.5705839652270078,-0.4823275896251201,-0.4029389956116676
1682361443022907100,11.2579072265625,0.4923557932950556,-0.2261094335436821,-0.5281067595034837
1682361443043036000,11.278035888671875,0.13224749301970004,0.08888298306763172,-0.5976204407125711
1682361443063165000,11.2981650390625,-0.3004692396096885,0.2884405097723007,-0.6527367632567882
1682361443083294000,11.3182939453125,-0.640598727826029,0.5217173507273197,-0.8622539584398269
1682361443103423000,11.338423095703124,-0.9227880682490766,0.651243309828639,-1.0180144289940596
1682361443123552000,11.358552001953125,-0.9702939157895744,0.4634025244027376,-0.954843979331851
1682361443143681000,11.378680908203124,-0.7976436852328479,0.37351065655350685,-0.9563362637162208
1682361443163810000,11.39881005859375,-0.4337338007174432,0.31680209638178347,-0.9279764306724071
1682361443183939000,11.41893896484375,-0.17067615400478242,0.16319208185970782,-0.9480044887006283
1682361443204067800,11.43906787109375,0.08236044943109154,0.21491993100941179,-1.1799673244476319
1682361443224196900,11.45919677734375,0.07660451625287533,0.3576087385445833,-1.4257844980239867
1682361443244326000,11.479325927734376,-0.11746771090850233,0.4411135357052087,-1.5394827733963727
1682361443264454000,11.499453857421875,-0.16182415450736878,0.8190554527044296,-1.6105173805624247
1682361443284583200,11.519583251953126,-0.017196633994579314,1.3474118030548095,-1.3903753309905529
1682361443304712000,11.5397119140625,0.105435327809304,1.5683686761409044,-0.9935019190281629
1682361443324841000,11.559841064453124,0.0740261901974678,1.5251064575195312,-0.8328478312134743
1682361443344970000,11.579969970703125,0.0407874990709126,1.3424316765546798,-0.7222060208022594
1682361443365099000,11.60009912109375,0.12362637966871261,1.3609388086259364,-0.6309551395595073
1682361443385228000,11.62022802734375,0.08240370405092835,1.0301730688214301,-0.7481716521859169
1682361443405356800,11.640356689453125,-0.13240005323290824,0.6170213067531586,-0.9893313553452491
1682361443425486000,11.660486083984376,-0.15770999718680978,0.16455577142834663,-0.8985627046614885
1682361443445615000,11.680614990234375,-0.029926497838646173,0.02694996624588966,-0.6566928074061871
1682361443465744100,11.700744140625,0.1847030719220638,-0.0019347674548625944,-0.22608020744919777
1682361443485873000,11.720872802734375,0.12117825586423277,-0.06905833865702152,0.1765337939918041
1682361443506002000,11.741001953125,0.03718552905619144,-0.3137514766395092,0.2768669763565063
1682361443526131000,11.761130859375,-0.07494374343380332,-0.20782909596562385,0.1571761825710535
1682361443546260000,11.781260009765624,0.29765578962415457,0.2404652911543846,0.3107996410965919
1682361443566389000,11.801388916015625,0.36205987273454665,0.37686464315652846,0.6957225030243397
1682361443586518000,11.82151806640625,0.2571552908010781,0.2584726570099592,0.9202911368668079
1682361443606647000,11.84164697265625,0.18719123547598718,0.28186288494765754,1.0297253250539302
1682361443626776000,11.861776123046875,0.3342424760043621,0.3434077792346477,1.0833750821769237
1682361443646904000,11.881904052734376,0.6132945413149893,0.3358855670362711,1.3104694351047277
1682361443667032800,11.90203271484375,0.9686148766614496,0.31763796268403527,1.5366419970124958
1682361443687161900,11.922161865234376,1.1984032909788191,0.20730711791813372,1.6421277398347853
1682361443707289900,11.942289794921875,1.2126171097703278,0.20068682299554347,1.628853247720003
1682361443727419000,11.9624189453125,1.0212548722200094,0.3614630758851766,1.645313968655467
1682361443747548000,11.9825478515625,0.8467531685777008,0.4472685512036085,1.8117945706665515
1682361443767677200,12.00267724609375,0.6126737790681421,0.5015975227624178,1.7204320457428692
1682361443787806000,12.022805908203125,0.4133728574730456,0.3176426388591528,1.5499106439083814
1682361443807935000,12.04293505859375,0.3167354608863592,0.13001169679164887,1.5170166745662688
1682361443828064000,12.06306396484375,0.3566670737802982,0.05885317098498344,1.469441853442788
1682361443848193000,12.083193115234375,0.3211754891604185,0.13706219982504844,1.4919950460344553
1682361443868321800,12.10332177734375,0.30651509564518925,0.31097441314160823,1.6435113031476736
1682361443888450800,12.123450927734375,0.26231954169645905,0.3257546336442232,1.7391840924859046
1682361443908580000,12.143580078125,0.4032407550372183,0.24119945064783094,1.6893156074672937
1682361443928707800,12.163707763671875,0.7061300614006817,0.34328970581293106,1.5386498297035693
1682361443948837000,12.183837158203126,0.760915836816281,0.41951194474995135,1.5726462073296308
1682361443968966000,12.2039658203125,0.4931266315370798,0.6217185246586799,1.6375912654489277
1682361443989095000,12.224094970703124,0.09455459896326064,0.7528191857308149,1.5749755270600319
1682361444009224000,12.244223876953125,-0.2753466349214315,0.6466536439508199,1.3591951798290014
1682361444029353000,12.26435302734375,-0.37620062628984446,0.517559646525979,1.2943372154712676
1682361444049482000,12.28448193359375,-0.254319628983736,0.41776013264656064,1.3860486999630928
1682361444069610800,12.30461083984375,-0.0169575645416975,0.5585387226462364,1.3582587757617235
1682361444089740000,12.324739990234375,-0.006908464214205741,0.5195043508529663,1.235572307291627
1682361444109869000,12.344869140625,-0.05258884989321232,0.36607553811669347,1.0124006807655095
1682361444129998000,12.364998046875,-0.012686316963285206,0.14116437444686888,0.8840273988306522
1682361444150126800,12.385126953125,-0.0021905688468366862,-0.019864391899108887,0.7355237675368785
1682361444170256000,12.405255859375,0.038397389063984155,-0.16361469118595123,0.725560007405281
1682361444190385000,12.425385009765625,0.06486271359808743,-0.0254494985550642,0.43722354252934453
1682361444210514200,12.44551416015625,0.09009104368314147,-0.04868073653876781,0.2843675612449646
1682361444230643000,12.465642822265625,0.06874328135848044,-0.19481880774497984,0.27054303403198715
1682361444250772000,12.48577197265625,0.1935784522950649,-0.19154606968462465,0.17020049931704997
1682361444270901000,12.50590087890625,0.2820323962956667,-0.06989420495927333,-0.03542494912445545
1682361444291029000,12.526029052734375,0.1690950222931802,0.062166241055727,-0.3076677728116512
1682361444311158000,12.546157958984375,-0.04634600998088717,-0.04301087420880794,-0.5875175643712282
1682361444331286800,12.566286865234375,-0.18806334213539957,-0.36059038470387456,-0.4814040450394153
1682361444351415800,12.586415771484376,-0.0410643432509154,-0.5134533802509308,-0.3958329629987478
1682361444371544800,12.606544921875,0.23363106122016905,-0.2797381478786468,-0.37474692035019397
1682361444391674000,12.626674072265626,0.46313897809572513,-0.09989303738176822,-0.3761655549764633
1682361444411803000,12.646802978515625,0.5604606306195259,-0.1569488035559654,-0.5097223770290613
1682361444431932000,12.666931884765624,0.48585108757615086,-0.3806125975131988,-0.418729269939661
1682361444452061000,12.68706103515625,0.48611426855698225,-0.33188276113569737,-0.3958130892544985
1682361444472190000,12.70718994140625,0.3946610696751624,-0.16795009004175662,-0.4635363799154758
1682361444492319000,12.727319091796875,0.17308686840832233,-0.01714461154639721,-0.5573445444256067
1682361444512447700,12.74744775390625,-0.04442475959472358,-0.26948154228031634,-0.5380249269276857
1682361444532577000,12.767576904296876,-0.08798800698928534,-0.39964755285084247,-0.5099900880545377
1682361444552706000,12.7877060546875,0.05137888958156109,-0.3046446255981922,-0.6751648681640625
1682361444572835000,12.8078349609375,0.13273907592892645,-0.023073417073488235,-0.8835761479318142
1682361444592963800,12.8279638671875,0.11305340159758925,0.14336334579586982,-0.840882669109106
1682361444613092900,12.8480927734375,0.03719451608024538,0.4278010496675968,-0.788888277977705
1682361444633222000,12.868221923828125,0.026463790164142846,0.6278928293794394,-0.8911421992719173
1682361444653351200,12.88835107421875,-0.058245195154473184,0.7267752284139394,-1.1210802511930464
1682361444673479000,12.90847900390625,-0.23698439023606477,0.5731938554644584,-1.4701538011044264
1682361444693608200,12.928608154296874,-0.45969124879464507,0.49496904453337187,-1.6125129382938146
1682361444713737200,12.9487373046875,-0.5225110583882778,0.5425380204379558,-1.487508256009221
1682361444733866200,12.9688662109375,-0.44927397274188696,0.5416051235020161,-1.3972779499858616
1682361444753995300,12.988995361328126,-0.41424832513332366,0.6332353594511747,-1.413204417914152
1682361444774124000,13.0091240234375,-0.4391420164365321,0.7345172208428382,-1.4068120865285396
1682361444794253000,13.029253173828126,-0.590620718018338,1.0201274756252765,-1.3139105154693127
1682361444814382300,13.04938232421875,-0.7447592864591628,1.07342242796123,-1.157950722950697
1682361444834511400,13.069511474609374,-0.921075492177531,0.7713578819841146,-0.8306541205614805
1682361444854640000,13.08964013671875,-0.9960947850655764,0.5487608404755592,-0.6411135454803705
1682361444874769200,13.10976904296875,-0.8849844072945415,0.3521539802700281,-0.271261411434412
1682361444894898200,13.129898193359375,-0.8337619503837078,0.19305296711623668,0.09412848250567912
1682361444915027200,13.150027099609375,-0.7270423549175262,0.150744688218832,0.23787878179252148
1682361444935156200,13.17015625,-0.6493651679318397,0.03782967217862606,0.32216683828532694
1682361444955285200,13.19028515625,-0.4758896655321121,-0.05294774633347988,0.5561936208248138
1682361444975414300,13.210414306640626,-0.11871522675156593,-0.12181728442013263,0.7325298464179039
1682361444995542300,13.230542236328125,0.20433482410907744,-0.16763035656809805,0.6060194357454777
1682361445015671300,13.25067138671875,0.3609774843253195,-0.23623685980439185,0.38282267477810383
1682361445035800300,13.27080029296875,0.25670973899066446,-0.3225041074156761,0.30306407840847965
1682361445055929000,13.29092919921875,0.3815729669779539,-0.39163434226512905,0.6830050602704286
1682361445076058000,13.31105810546875,0.5743880336850882,-0.34852176124751566,1.05053898050189
1682361445096187100,13.331187255859374,0.5865672779090703,-0.3554647122532129,1.2542355067074298
1682361445116316400,13.35131640625,0.5140661053217948,-0.32463585874736306,1.0910095225781202
1682361445136445200,13.371445068359375,0.26515768773183224,-0.4787076455622911,0.6445505341917276
1682361445156574200,13.39157421875,0.13111425120607018,-0.6787351278662681,0.6061749185681343
1682361445176703200,13.411703125,0.37109322014823554,-0.7694593548864126,1.0543038859933613
1682361445196832300,13.431832275390626,0.7350130415357649,-0.631873423448205,1.3330793263196945
1682361445216961000,13.4519609375,0.7056080833531916,-0.7190992869585752,1.088818150013685
1682361445237090000,13.472090087890624,0.31367782688140866,-0.8623463128983974,0.8690425956666469
1682361445257219300,13.49221923828125,0.03637611236944795,-0.7124824991673231,0.6762327896565199
1682361445277348400,13.512348388671874,-0.18278101781830192,-0.6753109986364841,0.4659878647208214
1682361445297477000,13.53247705078125,-0.30347499729692934,-0.5939034660160541,0.2792728684544563
1682361445317606100,13.552606201171875,-0.3081172701448202,-0.5578185916781425,0.1451817933946848
1682361445337734100,13.572734130859375,-0.33946620200201866,-0.45210137818753715,0.22063889317810534
1682361445357863200,13.59286328125,-0.21247487594485281,-0.20547522631585596,0.3556219486415386
1682361445377992200,13.6129921875,-0.09023717415556311,0.13391454944908618,0.1833575025320053
1682361445398121200,13.633121337890625,-0.06100055827721953,0.15865034677684306,-0.04749240353703499
1682361445418250000,13.65325,-0.028261779496818778,0.1312257487565279,-0.16666647997200487
1682361445438379300,13.673379150390625,0.08405366321504115,0.0517921465575695,-0.06210428173542022
1682361445458508300,13.69350830078125,0.265422037756443,0.08313011862933635,0.14795359619557857
1682361445478637300,13.71363720703125,0.32983459643423557,0.04947276369929313,0.221607445949316
1682361445498766000,13.73376611328125,0.29015958864986896,-0.14674831205904482,0.25553017381727694
1682361445518895000,13.75389501953125,0.2505351420089602,-0.19675883589684962,0.37683717062771316
1682361445539024100,13.774024169921875,0.25817864249944683,-0.1119493858784437,0.5327735822707415
1682361445559153400,13.7941533203125,0.1922889970064163,0.10002221671938896,0.5885094980180263
1682361445579282200,13.8142822265625,0.1727916848540306,0.22121464723944662,0.4873164839535951
1682361445599411200,13.8344111328125,0.08526070091724396,0.1342097330033779,0.439742247352004
1682361445619540200,13.854540283203125,0.07560206121206284,0.03551028932034969,0.4327998808681965
1682361445639668200,13.874668212890626,0.24304712434113024,0.2013561005592346,0.28467034358382226
1682361445659797200,13.89479736328125,0.3676923256635666,0.48447512304782864,0.07168751811683177
1682361445679926300,13.91492626953125,0.21115531777888535,0.30899463750123973,0.25063188038170336
1682361445700055000,13.935054931640625,0.048052375507354736,0.14291384846270083,0.36400983775854107
1682361445720184000,13.95518408203125,0.07916179952025414,0.04824643677473068,0.125281745660305
1682361445740313300,13.975313232421875,0.13011165003478525,0.11431669953167438,0.06754793409407138
1682361445760442400,13.9954423828125,0.2480478552378714,0.3340899157911539,0.11074234817624092
1682361445780571100,14.015571044921876,0.22474881271496414,0.14295593403875828,0.47818157586157317
1682361445800700200,14.0357001953125,0.28478388696089385,0.1178799449712038,0.5309978047698736
1682361445820829200,14.0558291015625,0.2415427111275494,0.17082126156389713,0.43055180968046186
1682361445840958200,14.075958251953125,0.1935398738503456,0.17850480180382727,0.3520569496363401
1682361445861087000,14.0960869140625,0.2648334242135286,0.3863309751600027,0.19251754506528376
1682361445881216300,14.11621630859375,0.15341609938517212,0.32581717748641964,0.33848318231403823
1682361445901345300,14.13634521484375,0.13764087649583814,0.2638403215229511,0.2771668360859155
1682361445921474300,14.156474365234375,0.14190481755062936,0.23427228173315523,-0.0765618461549282
1682361445941603000,14.17660302734375,-0.045888475471734996,0.18613164342045782,-0.37675767565071583
1682361445961731000,14.19673095703125,-0.24622692342102526,0.16310849522948265,-0.4683867425560951
1682361445981860000,14.216860107421875,-0.43657413870990275,0.22660744619369505,-0.527438650983572
1682361446001989000,14.236989013671876,-0.5835210420809686,0.19751871435344218,-0.5533242028683424
1682361446022118100,14.2571181640625,-0.4424741565339267,0.4346814568310976,-0.8112292891234159
1682361446042247200,14.2772470703125,-0.18607728288471698,0.767476072114706,-1.1733972984075545
1682361446062376200,14.297376220703125,-0.17939020633623004,1.0933674838811158,-1.5205138690322637
1682361446082505200,14.317505126953124,-0.47933776015937324,1.1206512121260166,-1.6034791524887084
1682361446102634200,14.33763427734375,-0.7425124573804438,1.0094254643470049,-1.6070231087058782
1682361446122763300,14.35776318359375,-0.8513046944022178,1.1092705709338186,-1.5530869358569384
1682361446142892000,14.37789208984375,-0.8426962213370949,1.3423907600224017,-1.4493535896599292
1682361446163021000,14.39802099609375,-0.8559545660346746,1.472369723588228,-1.2347837872624396
1682361446183150300,14.418150390625,-1.0473118351489306,1.2126841836571693,-1.0440922885805368
1682361446203279400,14.438279296875,-1.0259398882310837,0.9641133274585008,-1.2299486221909521
1682361446223408000,14.458408203125,-0.6560750408340245,1.1823761391550303,-1.829251901423931
1682361446243537200,14.478537109375,-0.1693372335512191,1.1173533396244049,-2.1362854679852723
1682361446263665200,14.4986650390625,0.15501820081956683,0.7855711162537335,-1.838692514464259
1682361446283794200,14.518794189453125,0.19199257134310901,0.22390169436633586,-1.0825322016119956
1682361446303923200,14.538923095703124,0.20612638370096684,-0.09331658160090446,-0.30197979030311106
1682361446324052000,14.559052001953125,0.08272161089368164,-0.1682213081985712,0.319673267903924
1682361446344181200,14.57918115234375,0.054524128804728386,-0.19483517435789108,0.7452922973573207
1682361446364310300,14.599310302734375,0.14126198960244654,-0.40758594463467596,0.9198597597122192
1682361446384439300,14.619439208984375,0.34929522983804345,-0.6382593250930308,1.0508230581402778
1682361446404568300,14.639568359375,0.5003157393235713,-1.024052540114522,1.1240437771737575
1682361446424697000,14.659697021484375,0.7405314396310597,-1.1653951937377451,1.2874112156003712
1682361446444826000,14.679826171875,1.165741376826912,-0.987733272498846,1.4363649287492035
1682361446464955100,14.699955078125,1.4099246655911206,-0.8990683160960674,1.5379688617020844
1682361446485084400,14.72008447265625,1.481221869216114,-0.8465414255231618,1.3025135076642036
1682361446505213200,14.740213134765625,1.1742768577210605,-0.9716337860912084,0.6971148341655731
1682361446525342200,14.76034228515625,0.8404793490052223,-1.1141349620997905,0.4997445883721113
1682361446545471200,14.78047119140625,0.7052783399421721,-0.8897071980327367,0.4171721036255359
1682361446565599200,14.80059912109375,0.4906079997796565,-0.15339315690100191,0.32419629828631874
1682361446585728300,14.820728271484375,0.346367944214493,-0.0880295811086893,0.596941810798645
1682361446605857000,14.84085693359375,0.3116850456289947,-0.30897359471321106,0.6913941184312105
1682361446625986000,14.860986083984375,0.40289062642529605,-0.5012935713797807,0.6494049884855747
1682361446646115300,14.881115234375,0.5648277397878467,-0.41854806815385814,0.9217693927258253
1682361446666244400,14.901244384765626,0.9788744048692285,-0.08565174606144428,1.395939979380369
1682361446686373000,14.921373046875,1.1968237667024135,0.37159751640856264,2.0620430046886202
1682361446706502400,14.94150244140625,0.9628780865751206,0.5156260481148958,2.4141736040830613
1682361446726631400,14.96163134765625,0.4495283128291368,0.5520633891522884,2.1537603343993426
1682361446746760400,14.981760498046874,-0.06694470750391483,0.49786944214999673,1.9255209030896425
1682361446766889200,15.00188916015625,-0.41838790915608404,0.4967997670918703,1.7855968840926884
1682361446787018500,15.0220185546875,-0.7969622057747096,0.5397650485932827,1.518967224112153
1682361446807147500,15.0421474609375,-1.0879508656598627,0.20299685350358485,1.38422616071105
1682361446827276500,15.062276611328125,-1.2477087352871894,-0.10873393096327781,0.8788146326184272
1682361446847404500,15.082404541015626,-1.0343353761326521,-0.16774083120524882,0.3330231633424759
1682361446867533600,15.102533447265625,-0.7543541402131319,-0.20333762976527212,0.150509710419178
1682361446887662300,15.122662353515626,-0.5219179878659546,-0.16183131490051744,0.26626491832137106
1682361446907791400,15.142791259765625,-0.2827379142165184,-0.13345394620001316,0.356650707167387
1682361446927920400,15.16292041015625,-0.26269758122861386,-0.16769991467297077,0.28948037421405315
1682361446948049700,15.183049560546875,-0.09024141193926334,-0.10324994659423828,0.0011637830823659895
1682361446968178400,15.203178466796874,0.023771920731663704,-0.11078034209907055,-0.02589256614744663
1682361446988307500,15.223307373046875,-0.038180896769091484,-0.09635784899294376,0.20816168892085551
1682361447008436500,15.2434365234375,-0.15222484377399087,-0.09326105202138424,0.40840135267078875
1682361447028565500,15.2635654296875,-0.2404126841843128,-0.18871406112909317,0.5226286203533411
1682361447048694300,15.2836943359375,-0.06485737983584404,-0.1502145268648863,0.3766068690031767
1682361447068823300,15.3038232421875,0.12410692972727119,-0.036358430582284926,0.6753776341319083
1682361447088952600,15.32395263671875,0.31498131069540974,-0.09056874419748782,0.9951941098988055
1682361447109081600,15.34408154296875,0.6643629036426544,0.25139818857908247,0.8361299216240644
1682361447129209600,15.364209716796875,0.7221849780142306,0.20215631102621553,0.8456360011160373
1682361447149338400,15.38433837890625,0.8367810790091752,0.09890110373497009,0.5886486142277717
1682361447169467400,15.40446728515625,1.0140133766591548,0.043726329001784324,0.38945758274793624
1682361447189596400,15.424596435546874,1.0968494807779787,0.07424538590610028,0.42895372683405875
1682361447209725400,15.444725341796875,0.993309611326456,0.05221534040570259,0.44783612195849415
1682361447229854500,15.4648544921875,0.7125638938404619,-0.053394321057200426,0.17522212687134742
1682361447249983500,15.4849833984375,0.4677952064037323,-0.2277776590168476,-0.2671884629070759
1682361447270112500,15.505112548828125,0.3721738549917936,-0.3364683353602886,-0.38910219343900676
1682361447290241500,15.525241455078126,0.5767325509846211,-0.14984686259627342,-0.5714893896341323
1682361447310370600,15.54537060546875,0.6675105540186166,0.17987550563514232,-0.7166986555576325
1682361447330499300,15.565499267578126,0.352764951775223,-0.11210779131054878,-1.0345452925562857
1682361447350628400,15.58562841796875,0.11350772123634814,-0.4625684116661548,-1.3516829045027494
1682361447370757400,15.60575732421875,0.1996649326018989,-0.744094612005353,-1.4435592241674662
1682361447390886700,15.62588671875,0.13336926359124482,-0.5555968239754439,-1.5309592752009629
1682361447411014700,15.6460146484375,0.10748422316312789,-0.31988428030610083,-1.1943360415399074
1682361447431143400,15.666143310546875,0.050401642047241325,0.0519447067707777,-0.8947972146481274
1682361447451272400,15.6862724609375,-0.09633213002979756,0.39841771879494187,-0.7937135061770677
1682361447471401500,15.7064013671875,-0.32096674178056417,0.7816478053301572,-0.9865700739383697
1682361447491530500,15.726530517578125,-0.5406850129824131,0.9581745850592851,-1.055095328631997
1682361447511659300,15.7466591796875,-0.7359159817248583,1.2065829441726208,-1.0222907911390064
1682361447531788300,15.766788330078125,-0.963906845100969,1.4278864387392998,-0.8872609739243984
1682361447551917600,15.78691748046875,-0.9611030397266149,1.3962304867595434,-0.5870055231958627
1682361447572046600,15.807046630859375,-0.8685000862877815,1.1877630928903817,-0.15152210233211516
1682361447592175400,15.82717529296875,-0.739154232993722,1.2185095288097858,0.1388672034204006
1682361447612304400,15.847304443359375,-0.6615104368209839,1.4588088157474994,0.13583353481292723
1682361447632433400,15.867433349609374,-0.7884170802693814,1.7616963685452938,-0.17885551493763924
1682361447652562400,15.8875625,-1.1178956298075615,1.3257418230384588,-0.1545095937103033
1682361447672690400,15.9076904296875,-1.1791244438827038,0.7309469611406326,-0.34053485414683815
1682361447692819500,15.9278193359375,-0.8735989437967538,0.30267829396128654,-0.3830184896111488
1682361447712948700,15.94794873046875,-0.5174263755351305,0.16148469341993332,-0.5086871887624264
1682361447733077800,15.968077880859376,-0.548995745209977,-0.1996276693314314,-0.6369213544875383
1682361447753206800,15.988206787109375,-0.6186304955154657,-0.5802805988550186,-0.7275397830456495
1682361447773335800,16.008335693359374,-0.37995793299674985,-0.9251777398645877,-0.8461603172510862
1682361447793464600,16.028464599609375,-0.0162075498919934,-0.9347340882390737,-1.0065122072488069
1682361447813593600,16.048593505859376,0.1453682558774948,-0.617123013561964,-1.1128671341210603
1682361447833723000,16.068722900390625,0.02250584631860256,-0.3201847245573997,-1.0155781417578458
1682361447853852000,16.088851806640626,-0.19474851898774503,-0.5550450353115797,-0.4316933809310198
1682361447873980700,16.108980712890624,-0.32859307194054127,-1.060171901243925,-0.0018517653465270996
1682361447894109700,16.129109619140625,-0.1759369971424341,-1.344458798468113,0.018675474375486372
1682361447914238700,16.14923876953125,0.10204232437014579,-1.463276316550374,0.03877016789913177
1682361447934366700,16.16936669921875,0.45630233700871464,-1.3868179307699202,0.07955459823012352
1682361447954495700,16.189495849609376,0.7594459103941917,-1.4339257189035415,-0.035869770282506944
1682361447974624500,16.20962451171875,0.8673230783976614,-1.496838978934288,0.09626958618760108
1682361447994753800,16.22975390625,0.844081172889471,-1.3731038781940936,0.3410001335710287
1682361448014882800,16.2498828125,0.6805300484590232,-1.1936737782388924,0.4734142153292894
1682361448035011800,16.27001171875,0.33678339265882967,-1.0659680203020572,0.5648351924419402
1682361448055140600,16.290140625,0.10087795676589012,-0.7961182292312383,0.6179495275139808
1682361448075269600,16.31026953125,0.05060790520906448,-0.4052829283893108,0.5872030915945768
1682361448095398700,16.330398681640624,0.11656243263185023,-0.0888753842830658,0.5422492666244506
1682361448115527700,16.350527587890625,0.0994939550615847,-0.08906360033154487,0.6828858178049325
1682361448135657000,16.370656982421874,0.10214534635320305,-0.048447512304782864,0.5936281562060117
1682361448155785700,16.39078564453125,0.20679566126465795,0.019452303966879844,0.4785702829182148
1682361448175914800,16.410914794921876,0.36037820325791836,0.22829963706433773,0.5548872144013643
1682361448196043800,16.431043701171873,0.5671902311354875,0.36311902639865873,0.3736865976423025
1682361448216172800,16.4511728515625,0.5581641902454197,0.20858137563765047,0.15568565175235272
1682361448236300800,16.47130078125,0.38389644148945806,0.06579729103446007,0.16610592347979544
1682361448256429600,16.4914296875,0.16314049780294299,-0.01696808593571186,0.453808182105422
1682361448276558600,16.51155859375,0.18965791785046457,0.35193420003950593,0.4796013795316219
1682361448296687900,16.53168798828125,0.10541399276033044,0.30759120044410226,0.5010948339372873
1682361448316817000,16.55181689453125,0.0005851064115762711,0.11123919178247452,0.5755903952121735
1682361448336945700,16.571945556640625,0.07159808626770973,0.12862696443498134,0.7090969483822583
1682361448357074700,16.59207470703125,0.1362720723606646,0.051930093723535534,1.0296054980665446
1682361448377203700,16.61220361328125,0.19171338907554744,-0.02137304289638996,1.045143843460083
1682361448397332700,16.632332763671876,0.17989201837852598,0.10094283869564533,0.6365478450000286
1682361448417461800,16.652461669921873,0.03878945712149143,0.09913257440328598,0.3950841904580593
1682361448437590800,16.6725908203125,-0.07868176091834903,0.1088654483884573,0.617132365912199
1682361448457719800,16.6927197265625,-0.1947813983440399,-0.02964870381057262,0.7819581864535808
1682361448477848800,16.712848876953124,-0.2139222982741892,0.11823416523635387,0.526411061501503
1682361448497976800,16.732976806640625,-0.3004541881710291,-0.02404138532280922,0.3121557318806648
1682361448518105900,16.75310595703125,-0.4610714511066675,-0.11021043325662612,0.19913374833464623
1682361448538234600,16.773234619140624,-0.5001163442939519,-0.2567266901254654,0.13473580270409583
1682361448558363600,16.79336376953125,-0.39966976468265053,-0.3013631197094917,0.012062778237462043
1682361448578492700,16.81349267578125,-0.2996544160954654,-0.28286592451035975,-0.00040624271333217617
1682361448598622000,16.8336220703125,-0.02483092826530337,-0.07580898196101188,-0.136579969266057
1682361448618750700,16.853750732421876,0.016706658520549533,0.030498598638176916,-0.21223872910141944
1682361448638879700,16.873879638671873,-0.1677716647349298,-0.2201654304474592,-0.03466507066786289
1682361448659008800,16.8940087890625,-0.19610300233662128,-0.26824644752740856,-0.11114683732390403
1682361448679137800,16.9141376953125,-0.18938158512711523,-0.26955110038518904,-0.21559622283577917
1682361448699266600,16.9342666015625,-0.2522564128436148,-0.1255880351305008,-0.3381675404936075
1682361448719395300,16.954395263671874,-0.3895077054999769,-0.023588380858302116,-0.2593225518375635
1682361448739524400,16.9745244140625,-0.31551673274636266,0.17610592396855354,-0.42911037870049473
1682361448759652400,16.99465234375,-0.1023556281030178,0.48386371315121646,-0.8154173884630203
1682361448779781400,17.014781494140625,-0.038627544558048246,0.3902034326791763,-1.0133289015263318
1682361448799910400,17.034910400390626,-0.13855916038453578,0.20579028361439702,-1.1912339838713406
1682361448820039200,17.0550390625,-0.10779460428655147,0.4454033418536186,-1.5345388872534036
1682361448840168200,17.075168212890624,-0.22754969547986983,0.617867109927535,-1.561464888101816
1682361448860297500,17.09529736328125,-0.3850451731331646,0.7143395252108573,-1.4975386516362428
1682361448880426500,17.115426513671874,-0.3970961148023605,0.7325976509571075,-1.508276903271675
1682361448900555300,17.13555517578125,-0.2669010242678225,0.933442879384756,-1.6126953091233969
1682361448920684300,17.155684326171876,0.0289437704116106,1.2344897727519273,-1.6783517303824425
1682361448940813300,17.175813232421874,0.11399521249234676,1.5756412974923848,-1.7533078949064016
1682361448960942300,17.1959423828125,-0.09891922391355037,1.4016437439799307,-1.6764117022305727
1682361448981071400,17.2160712890625,-0.17192250080406665,1.123798277980089,-1.5227946734458206
1682361449001200400,17.236200439453125,-0.05838131568953395,0.8871820634692906,-1.3685796787679194
1682361449021328100,17.256328125,0.22322525640949606,0.6369371365785599,-1.4553513687700033
1682361449041457400,17.27645751953125,0.5279314029365778,0.0835024590730667,-1.395755854985118
1682361449061586400,17.29658642578125,0.9189572579145431,-0.3771007899999618,-1.275382339632511
1682361449081715500,17.316715576171877,0.9819934136725962,-0.65318099989295,-1.104954461300373
1682361449101844200,17.33684423828125,0.769852153596282,-0.9011749329864979,-0.778724026837945
1682361449121973200,17.35697314453125,0.2007166336119175,-1.0268260964810847,-0.30946517762243747
1682361449142102300,17.377102294921876,-0.2949421467512846,-0.9654021982252597,0.03491232342720031
1682361449162231600,17.3972314453125,-0.4686776152614504,-0.7483744812816381,0.19931611916422842
1682361449182360300,17.4173603515625,-0.2893119588445872,-0.46817163850069043,0.4136749091595411
1682361449202489300,17.4374892578125,0.027577742755413054,-0.14233049561679362,0.3275578836739063
1682361449222618400,17.457618408203125,0.1703742484487593,0.005727145475149155,0.4518471111655235
1682361449242747400,17.477747314453126,0.05422507279291749,-0.26482933256030083,0.8560890060693025
1682361449262875400,17.49787548828125,0.3514923745561391,-0.3590758884876966,1.098201479908824
1682361449283004200,17.518004150390624,0.5551181736130267,-0.07573182507157325,1.218941490486264
1682361449303133200,17.53813330078125,0.28210429248809815,-0.06429039360284805,1.34176006090343
1682361449323262200,17.55826220703125,0.06575286737084389,-0.1628004521936178,1.1764742216348647
1682361449343391500,17.5783916015625,0.25170104398317633,-0.0671726710408926,1.0486918913304806
1682361449363520300,17.598520263671876,0.3565840716719627,-0.007459083834290504,1.2970365375578403
1682361449383649300,17.618649169921873,0.2659371476717293,0.16418050837516784,1.53905899502635
1682361449403778300,17.6387783203125,0.46934375101998443,0.13182079204022884,1.6613111637324094
1682361449423907300,17.6589072265625,0.3976449808567762,-0.11824410210847854,1.6642513088375328
1682361449444036400,17.679036376953125,0.5699528277166187,-0.01539864466190338,1.8665104957163332
1682361449464165000,17.6991650390625,0.9122510382741689,0.11773673710823059,2.1854104411602018
1682361449484294400,17.71929443359375,1.162268732280284,0.32900808248221874,2.268901209795475
1682361449504422400,17.73942236328125,0.9317068493723869,0.2555927176594734,2.3905770399183033
1682361449524551400,17.759551513671877,0.5318481379888952,0.19044424592256545,1.9897440766751766
1682361449544680400,17.779680419921874,0.2857577004291117,0.34614334167838096,1.4281699318557977
1682361449564809200,17.799809326171875,0.046938276785612104,0.3144143244624138,1.2465589807301758
1682361449584938200,17.819938232421876,-0.12496727288365363,0.4778454757750034,0.9717010061085224
1682361449605067300,17.8400673828125,-0.07865574969425797,0.6261474470168352,0.7203449031054974
1682361449625196300,17.8601962890625,-0.014550941791385412,0.48221594594419,0.6008101766645908
1682361449645325300,17.8803251953125,0.10903320617079734,0.3665525079786777,0.5465712214767933
1682361449665454300,17.900454345703125,0.03869344940111041,0.214876676389575,0.547015458112955
1682361449685583400,17.920583251953126,0.10295885469317435,0.16331190884709357,0.6607780308932065
1682361449705712600,17.940712646484375,0.19780819881930947,0.09915829336643218,0.5781190369069575
1682361449725840600,17.960840576171876,0.16888108728155493,-0.04846855509281158,0.432287839692831
1682361449745969400,17.980969482421877,0.14340250876247881,-0.0357277314633131,0.12320552390813827
1682361449766098400,18.001098388671874,0.17496917502358555,0.0576134000569582,-0.05033201087713241
1682361449786227500,18.0212275390625,-0.09038272010609508,-0.14096212987303733,-0.0020686229676008224
1682361449806356500,18.0413564453125,-0.12885054405778645,-0.4408750507742166,-0.13718319585621355
1682361449826485500,18.061485595703125,0.03335048093795776,-0.4958797296375036,-0.21222586961984632
1682361449846614500,18.081614501953126,0.33684652102291585,-0.45428456744551654,-0.11212824957668781
1682361449866743600,18.10174365234375,0.6192229084506631,-0.41360418201088905,0.030778000101447104
1682361449886872600,18.12187255859375,0.7132970304206013,-0.5728045638859272,0.07517769832015037
1682361449907001600,18.142001708984374,0.8322995496809482,-0.743566788738966,-0.004131985238194465
1682361449927130400,18.16213037109375,0.967763812790066,-0.6422557012528181,-0.2825631421715021
1682361449947259400,18.18225927734375,0.6612272359654306,-0.3288169438242912,-0.5356383240520953
1682361449967387400,18.202387451171877,0.6035752574637532,-0.09975509021580219,-0.8531909465402364
1682361449987516400,18.222516357421874,0.04014876277595758,-0.2607616447299719,-0.41881753274500366
1682361450007645700,18.242645751953123,0.07904314157664775,-0.5623831231147051,0.02113514248728752
1682361450027774500,18.2627744140625,0.17014146260619162,-0.20210428857803345,-0.15670213531851768
1682361450047903500,18.282903564453125,0.534335424759984,-0.0275146143913269,-0.4750964693278074
1682361450068032500,18.303032470703126,0.33744273335039615,0.06321078167259693,-0.6009808570563793
1682361450088161500,18.32316162109375,-0.1418900583729148,-0.02339081245958805,-0.5633803174585104
1682361450108290600,18.34329052734375,-0.5711687793776392,-0.31899814512133595,-0.192015440762043
1682361450128419300,18.36341943359375,-0.6351449924647807,-0.3608113339781761,-0.18870470877885817
1682361450148548600,18.383548583984375,-0.4457145997598767,-0.20517828919589517,-0.3336538624614477
1682361450168677600,18.403677734375,-0.34584552777558564,-0.060225043860077855,-0.6332973187714814
1682361450188805600,18.4238056640625,-0.30480361555218694,0.08337561782300472,-0.5187690223157405
1682361450208934700,18.4439345703125,-0.1879340166673064,0.05394844780862331,-0.424812973767519
1682361450229063400,18.4640634765625,0.013054711884260177,-0.05548807846605777,-0.2274064876168966
1682361450249192400,18.4841923828125,0.14774492188096044,-0.03537877189517021,-0.07228022331297397
1682361450269321500,18.504321533203125,0.12559767974168062,0.03715981009304523,-0.26835107694566246
1682361450289450500,18.524450439453126,-0.07194061609506607,0.1265899056494236,-0.3429775711238384
1682361450309579500,18.54457958984375,-0.0018789456143975256,0.1789917085379362,-0.22588848426938055
1682361450329708500,18.56470849609375,0.1642863068372011,0.4547475087821483,-0.19527005864381788
1682361450349837600,18.584837646484374,-0.05318769256919622,0.7831307373642921,-0.11320260080993175
1682361450369966600,18.604966552734375,-0.7840510670796036,1.2393722840964794,-0.8688350903958082
1682361450390095400,18.625095458984376,-1.7899775833949445,1.1374480331480503,-0.6993927159696817
1682361450410223400,18.645223388671877,-2.085831876555085,0.8371358837962151,-0.537642065089941
1682361450430352400,18.665352294921874,-1.8503122251093387,0.5395569588005542,-0.6573579933166503
1682361450450481400,18.6854814453125,-1.2612170361578463,0.4585942473381757,-0.7308622054666281
1682361450470610400,18.7056103515625,-0.7306900637701154,0.4814665888816118,-0.6713771663188934
1682361450490739500,18.725739501953125,-0.4273907153010368,0.4513403306871652,-0.753605952194333
1682361450510868500,18.745868408203126,-0.468896153382957,0.382249843326211,-0.7716653404980898
1682361450530997500,18.76599755859375,-0.3405041667476296,0.26034897227585313,-0.6888999635279178
1682361450551126500,18.78612646484375,-0.08825228394865989,0.14779811337292192,-0.658324792522192
1682361450571255600,18.806255615234374,0.07941139036715031,0.16046411820054055,-0.6285808116436005
1682361450591384300,18.82638427734375,0.0032569559693336487,0.11048515854477882,-0.49032443359792227
1682361450611513300,18.846513427734376,-0.1680909598171711,-0.014210311660170553,-0.2590951728224754
1682361450631642600,18.866642578125,-0.06697334907650947,-0.1981272016406059,-0.17572540021836758
1682361450651771600,18.886771728515626,0.3209790898054838,-0.22297814978063105,-0.09524141218364238
1682361450671899600,18.906899658203123,0.7671694903835654,-0.38433015673160553,0.17345862433016299
1682361450692028400,18.9270283203125,1.0520400327146053,-0.3725900345772505,0.2802092725217342
1682361450712158000,18.947157958984373,0.8409691783487796,-0.3552279808878898,0.13276128776073454
1682361450732287000,18.967286865234374,0.24952859531491994,-0.3938245457857847,0.007767126870155334
1682361450752416000,18.987416015625,0.057247781614959234,-0.3007943799108267,0.02108545812666416
1682361450772544800,19.007544677734376,0.4938099376261234,-0.276779882594943,0.2671165667146444
1682361450792674000,19.027674072265626,0.5398436667874456,-0.2957902880132198,0.5116092136889696
1682361450812803000,19.047802978515627,0.22512948259562252,-0.1280570555925369,0.7824901013731956
1682361450832932000,19.06793212890625,-0.3709165484070778,-0.20399872402250765,0.8876210394084453
1682361450853060900,19.088060791015625,-0.24273411286920307,-0.11244330687522887,0.7572977924495935
1682361450873190000,19.10818994140625,0.6265177416339516,-0.1995961051493883,0.9553338086754083
1682361450893319000,19.12831884765625,1.0208847237333656,-0.3563286356061697,0.9395680842667817
1682361450913447000,19.148447021484376,0.8442331485807895,-0.465753471443057,0.6607423750579356
1682361450933576000,19.168575927734373,0.5144140419766307,-0.5674053351908922,0.3910007205367088
1682361450953705000,19.188705078125,0.4283534228533506,-0.3720318161725998,0.6132236680358648
1682361450973834000,19.208833984375,0.5447194561302662,-0.48338849685490126,0.7722726587414741
1682361450993963000,19.228962890625,0.7504486572071909,-0.5827928739368915,0.7744570170432329
1682361451014092000,19.249092041015626,0.5770639748960733,-0.5975006137251854,0.37277708158195016
1682361451034221000,19.269220947265627,0.03687923958599567,-0.4824585225284099,0.0021066168904304503
1682361451054349800,19.289349853515624,-0.15888941622972488,-0.28505788159668444,0.04547288040816783
1682361451074478800,19.309478759765625,0.09882511588931082,-0.14632044203579425,0.18492811284959315
1682361451094608100,19.329608154296874,-0.03596767769902944,-0.20288404077887534,0.07123159104287624
1682361451114737200,19.349737060546875,-0.20990707128345965,-0.18694179075956344,-0.004269932404160499
1682361451134866000,19.369865966796876,-0.2125409269183874,-0.06807692640423774,0.16911328860223293
1682361451154994000,19.389993896484373,0.07953998518288136,0.02417816344499588,0.4278904815167188
1682361451175123000,19.410123046875,0.19135580780953168,0.05885843168199062,0.539001663005352
1682361451195252000,19.430251953125,-0.03828413794785738,-0.05846446392834186,0.21520167056024073
1682361451215381000,19.450381103515625,-0.12357348043769598,-0.2628647544890642,0.09725684365928172
1682361451235509800,19.470509765625,-0.08365355798155069,-0.18206863176524637,-0.1362409465700388
1682361451255638800,19.490638671875,0.046644262275099754,-0.19247955114245413,0.05843582235574722
1682361451275768000,19.51076806640625,0.39039486359804865,-0.18050445118844508,0.08699030118882656
1682361451295897000,19.53089697265625,0.4516650325968861,-0.1799064852952957,-0.12820026345551014
1682361451316025900,19.55102587890625,0.26729513815194367,-0.4169412174791097,-0.3187795339345932
1682361451336155000,19.57115478515625,0.2906567245170474,-0.45783086175024507,-0.2576315300107002
1682361451356284000,19.591283935546876,0.3640627369895577,-0.4410632668226957,-0.21729133631587028
1682361451376412000,19.611411865234373,0.23105974942743776,-0.533259319961071,-0.19812953972816466
1682361451396541000,19.631541015625,-0.04059592202156782,-0.3796557351797819,-0.5147597866743803
1682361451416670000,19.651669921875,-0.3698036187291145,-0.3718704881310463,-0.5739513958334922
1682361451436799000,19.671799072265625,-0.3396723920986056,-0.28950492413342,-0.24476503417491913
1682361451456928000,19.691927978515626,-0.33342911379486323,-0.1428542272299528,-0.12184066529572009
1682361451477057000,19.71205712890625,-0.5602490336954593,-0.12622282590270043,-0.028178631258010862
1682361451497186000,19.73218603515625,-0.8570762635409831,0.0362812736928463,-0.23857202475368974
1682361451517314800,19.752314697265625,-1.040839424264431,-0.05176292046308517,-0.15491232929229734
1682361451537443800,19.77244384765625,-0.8611907131224871,-0.07479775909185409,-0.24271219329833982
1682361451557572900,19.79257275390625,-0.6130728613883256,-0.10061199930608272,-0.06081073479354381
1682361451577702100,19.8127021484375,-0.45743981660604477,-0.16327449944615363,0.09030337125957012
1682361451597830100,19.832830078125,-0.3913151933133602,-0.058736266607046124,0.03994271880984306
1682361451617959000,19.852958984375,-0.46757338034659623,0.07575345238149166,-0.2316068619161844
1682361451638088000,19.873087890625,-0.5867381044313311,0.19460896438658237,-0.581298251464963
1682361451658217000,19.893217041015625,-0.5717910029292106,0.3387263434201479,-0.5094400529563426
1682361451678346000,19.913345947265626,-0.44295594870150085,0.2631400642991066,-0.648621144631505
1682361451698475000,19.93347509765625,-0.4447565683826804,0.3391249873489141,-0.7568401118099689
1682361451718603500,19.953603515625,-0.5705009631186724,0.5043453601658344,-0.8701958573549985
1682361451738732500,19.973732666015625,-0.6648080170616507,0.7397375858396291,-0.9336848714470862
1682361451758861600,19.993861572265626,-0.6335261590912937,0.90158117569983,-0.9137976831942796
1682361451778989600,20.013989501953127,-0.7422177122175693,0.8445107964783907,-0.9825111539363861
1682361451799118600,20.03411865234375,-0.8610030815958977,0.7763152121305466,-1.0471212810128927
1682361451819247400,20.054247314453125,-0.758152947974205,0.8350479716062545,-1.0226794981956482
1682361451839376600,20.074376708984374,-0.6144017719045282,0.9260492620021105,-1.0610118591994047
1682361451859505700,20.094505615234375,-0.4056035386458039,1.0030886625409126,-1.1307090802818536
1682361451879634700,20.114634765625,-0.47672085565924643,0.7775900543719529,-1.442334066286683
1682361451899763700,20.134763671875,-0.6650786506965756,0.2934983776837587,-1.5738070678025484
1682361451919892500,20.154892578125,-0.5146308995977044,-0.08831132065951823,-1.1103618733018636
1682361451940021500,20.175021484375,-0.07116846267879008,0.15974515627622604,-0.7778408142626285
1682361451960150500,20.195150634765625,0.3052905222862959,0.2456844871073961,-0.25990999633669853
1682361451980278500,20.215278564453126,0.5176482015922665,0.22095278143286703,0.16692366960346697
1682361452000407800,20.23540771484375,0.8943065085217357,0.34898937875926495,0.7229413493394852
1682361452020536600,20.25553662109375,1.2200430219873786,0.41685412371754643,1.2528729861825705
1682361452040665600,20.27566552734375,1.3027230587616563,0.48600423231124873,1.3613859678715468
1682361452060794600,20.295794677734374,1.3466615692093968,0.47934126729071136,1.4520190094769
1682361452080923600,20.315923583984375,1.212108429595828,0.43858314044475555,1.5681412971258162
1682361452101052400,20.336052490234376,1.0052601613610983,0.488213725054264,1.6317799488216638
1682361452121181400,20.356181396484374,0.9320084626674652,0.6137631817400455,1.6470944223314523
1682361452141310700,20.376310791015626,0.6684700467005371,0.47728199667334553,1.4435042791098356
1682361452161439700,20.396439697265624,0.47802667756080625,0.36342239325940606,1.543501361387968
1682361452181568500,20.416568603515625,1.0055275801256298,0.1001467198818922,1.7609464269608257
1682361452201697500,20.436697509765626,1.7146207291156053,-0.16536825685501097,1.7951590776860713
1682361452221825500,20.456825439453127,2.0648440335839986,-0.32620880715250966,1.7951736907333136
1682361452241954600,20.47695458984375,1.9341309105247257,-0.3539356029897928,1.5766279704421757
1682361452262083600,20.49708349609375,1.2826520383745432,-0.20638065072298048,1.006586441528797
1682361452282212600,20.517212646484374,0.516785739544034,-0.1491729088574648,0.6652315031707287
1682361452302341400,20.53734130859375,0.27588351827710866,-0.21105273418724535,0.5976923369050026
1682361452322470700,20.557470703125,0.6068041563823818,-0.22722645487487314,0.49072015491724014
1682361452342599700,20.577599609375,0.65899991530478,-0.29082126742899417,0.23478023125529288
1682361452362728700,20.597728759765626,0.5343722496390343,-0.3803729435384273,0.2871908019721508
1682361452382857500,20.617857421875,0.5645920313358307,-0.14122867185473442,0.42538522069752216
1682361452402986500,20.637986572265625,0.664259151007235,-0.0950572877883911,0.7827204029977322
1682361452423114500,20.658114501953126,0.7481739902734756,-0.04578910675048828,0.8664251066446303
1682361452443243500,20.678243408203127,0.8472782153651118,0.060118660876154896,0.950091816368699
1682361452463372500,20.69837255859375,0.5692912950679659,-0.07684183214008808,1.093186282095313
1682361452483501600,20.71850146484375,0.3536149927332997,-0.19278525609076022,0.7727350155562162
1682361452503630600,20.738630615234374,0.16720716271996497,-0.18883681072592734,0.6158610308021306
1682361452523759600,20.758759521484375,0.07436404384970664,-0.20042145005762577,0.6237006383866072
1682361452543888600,20.778888671875,0.07073387065380811,-0.24118951377570627,0.35805589779019353
1682361452564017400,20.799017333984374,-0.13987345785349606,-0.40270284876823426,-0.0440630136102438
1682361452584146400,20.819146484375,-0.3025511604502797,-0.6159972244024277,-0.5983604454249143
1682361452604274400,20.8392744140625,-0.3834849380791187,-0.6247083541244268,-0.9453291320115327
1682361452624403500,20.859403564453125,-0.06723696844875812,-0.7990367470264435,-0.8538473646223544
1682361452644532700,20.87953271484375,0.1357974405862391,-0.783207309731841,-0.7139496491104363
1682361452664661800,20.899661865234375,0.13301511639133096,-0.7445926246553659,-0.604689063924551
1682361452684790500,20.91979052734375,-0.22888868899866938,-0.849521318116784,-0.4751537524729967
1682361452704919000,20.9399189453125,-0.10042860556319355,-0.7160486672163009,-0.3490770570427179
1682361452725048300,20.96004833984375,0.2269452998459339,-0.49774201637804505,0.2934516159325838
1682361452745177300,20.98017724609375,0.33710093417540193,-0.36852176222503186,0.8031529501736163
1682361452765306000,21.00030615234375,0.2675210558623075,-0.31235856097638603,0.8502104694247246
1682361452785434400,21.020434326171873,-0.1031421023055911,-0.31259412329792974,0.6845832693725824
1682361452805563100,21.040563232421874,-0.300679082968086,-0.16658464690744876,0.6923615021586418
1682361452825692200,21.060692138671875,-0.2962576132640242,0.07287526659667491,0.17519874599575996
1682361452845821200,21.0808212890625,-0.34981574658080933,0.00826221691071987,-0.23952947160899637
1682361452865950200,21.1009501953125,-0.21542072013840077,-0.10793138240873813,-0.3970166198253631
1682361452886079200,21.121079345703127,-0.06785130095481873,-0.0889969648361206,-0.556736057138443
1682361452906208300,21.141208251953124,-0.16048048481345176,-0.07716039656996726,-0.8490262280762195
1682361452926337300,21.161337158203125,-0.2697469152182341,-0.01917348702549934,-1.105219249716401
1682361452946466300,21.18146630859375,-0.2904213083259761,0.19208616791069508,-1.2878057678759098
1682361452966594300,21.20159423828125,-0.15075667091757058,0.15770809749066828,-1.0546978537470102
1682361452986723000,21.22172314453125,0.12596592853218316,0.3589075461834669,-0.9620978959828614
1682361453006852000,21.24185205078125,-0.24643764356225728,0.46546822476089,-0.9539397239685058
1682361453026981000,21.261981201171874,-0.41823681024760007,0.5138648836612701,-0.7661112135022878
1682361453047110400,21.2821103515625,-0.06654065674766897,0.711423345503211,-0.42369770600199697
1682361453067239200,21.3022392578125,0.042398587529361244,0.7955155871629714,0.029165888729691503
1682361453087368200,21.3223681640625,-0.026888299186527728,0.9428151033639908,0.14481529816985128
1682361453107497200,21.342497314453126,0.06015753158181905,1.349727094259858,-0.19509820920825002
1682361453127626200,21.362626220703124,-0.4972399120748043,1.5854998436838388,-0.34837329268753525
1682361453147754200,21.382754150390625,-1.148295590376854,1.8399252711296081,-0.5994903262376785
1682361453167883300,21.40288330078125,-1.6936761407643555,1.7305319994747637,-0.5996247662723064
1682361453188012000,21.423011962890627,-1.9119217090651393,1.3788888913363218,-0.4494721987277269
1682361453208141000,21.44314111328125,-1.6838834994159637,1.044985438027978,-0.5431581981629133
1682361453228270300,21.463270263671873,-1.1114736339360476,0.6794710409253836,-0.5919190142005681
1682361453248399400,21.4833994140625,-0.2649509131133556,0.28139234482645986,-0.6250543910831212
1682361453268528000,21.503528076171875,0.5538856361433864,0.0074298577398061744,-0.5584025290459395
1682361453288657200,21.5236572265625,1.0006851085305213,-0.17304712091982363,-0.4644891505956649
1682361453308786200,21.5437861328125,1.0159782469913363,-0.3241524591445923,-0.3667331252425909
1682361453328915200,21.563915283203126,1.0891688631474972,-0.447802804210782,-0.11925474045574665
1682361453349043200,21.584043212890624,1.0358464382827282,-0.4338181180000305,0.32348610419034957
1682361453369172200,21.604172119140625,0.45210722340643406,0.06804770030975342,0.39653848091959953
1682361453389301200,21.62430126953125,-0.025572540412843226,0.5137316126704216,0.26391689389050005
1682361453409430300,21.64443017578125,0.24643267512619493,0.4391419433712959,0.23027941270470617
1682361453429559300,21.664559326171876,0.9146624833300709,0.05143441916108131,0.12307926717996596
1682361453449688300,21.684688232421873,1.3396839852817355,-0.21087971570789812,0.1557780062109232
1682361453469817000,21.704817138671874,1.1242650187090037,-0.45148821472525597,0.2042453922599554
1682361453489946000,21.724946044921875,0.5859989765018224,-0.4751169275939464,0.012744915282726288
1682361453510074000,21.74507421875,-0.0328261648029089,-0.6950140624940395,0.06050035367012024
1682361453530203100,21.765203125,-0.4315986883848905,-0.6793453687191009,0.2543067695021629
1682361453550332400,21.78533251953125,-0.30649741385802626,-0.67293141002357,0.4925801035702228
1682361453570461200,21.805461181640624,-0.07937573453187942,-0.6765501850426197,0.7700713493049144
1682361453590590200,21.825590087890625,0.0017478665806353092,-0.7947878574103117,0.9240513661831616
1682361453610719200,21.84571923828125,-0.01875146222114563,-0.9830413152903318,0.9864005625903606
1682361453630848300,21.86584814453125,0.09522299974411726,-0.9231196382910013,0.8827297602355479
1682361453650977000,21.88597705078125,0.14766265042498708,-0.7639572503387928,0.646439124417305
1682361453671106000,21.90610595703125,0.19209157473817468,-0.7590969508260488,0.5490291360229254
1682361453691234000,21.926234130859374,0.3166942520931363,-0.7860416563749313,0.5644102450281381
1682361453711362800,21.94636279296875,0.4794593407124281,-0.6411059466958046,0.6037029754966498
1682361453731492000,21.9664921875,0.6033437867954373,-0.5030933142781258,0.7264040570139885
1682361453751621000,21.98662109375,0.5378505932740867,-0.26480302907526493,0.4879232176750898
1682361453771750000,22.00675,0.4012044269040227,-0.1508931567788124,0.356122883901
1682361453791879000,22.02687890625,0.19216624740958213,-0.08244447445273399,0.2548170571118593
1682361453812008000,22.047008056640625,0.021312398750334978,-0.024620646515488624,0.3211778272479772
1682361453832137000,22.067136962890626,0.17038754632174968,0.17424480627179145,0.6948129869639873
1682361453852265700,22.087265625,0.1948610394515097,0.018515315377712248,0.8403320494890213
1682361453872393700,22.107393798828124,0.1105821891784668,-0.02847673742175102,0.5288853426605463
1682361453892523000,22.12752294921875,-0.04417524181306362,-0.0009843348622322083,0.34260932233333585
1682361453912652000,22.147652099609374,-0.2604325589060783,-0.20596096400618552,0.1725660594046116
1682361453932781000,22.167781005859375,-0.15211188491880892,-0.24738661485016344,-0.09060673812031746
1682361453952909800,22.187909912109376,-0.0024526538491249084,-0.17403788552284238,-0.18759996240735052
1682361453973038800,22.208038818359373,0.028651801727712152,-0.33804888255000115,-0.23827859476506708
1682361453993168000,22.22816796875,0.0068108490586280815,-0.4303472270190716,-0.516552515310049
1682361454013297000,22.248296875,0.008925649255514144,-0.6191361069500446,-0.6228513280808925
1682361454033425000,22.2684248046875,0.2015396404325962,-0.5798182420402765,-0.8632242647767067
1682361454053554200,22.28855419921875,0.22647198324576018,-0.5809077908426523,-0.953406055483222
1682361454073683000,22.308682861328126,0.36415363014340396,-0.7385621123194694,-1.148660916557908
1682361454093812000,22.32881201171875,0.4041917721517384,-0.45499417701959605,-1.1118033042818307
1682361454113941000,22.34894091796875,0.24488076950907706,-0.42155134162306784,-0.8229127126544713
1682361454134070000,22.369070068359374,0.1836193683385849,-0.15426467903852462,-0.6872551189303397
1682361454154198800,22.38919873046875,0.0726679074563086,-0.04988777424097061,-0.3355266705960035
1682361454174327800,22.409327880859376,-0.1448375100016594,-0.01846387745141983,-0.0567851325392723
1682361454194457000,22.42945703125,-0.154989486181736,0.344188700479269,0.1290723701149225
1682361454214585000,22.449585205078126,-0.3480291554249823,0.4951169285714626,0.4086205483794212
1682361454234714000,22.469714111328123,-0.26314590951800343,0.5912544128119945,0.3736252228438854
1682361454254843000,22.4898427734375,-0.27272344681099053,0.4282131375998258,0.08349778289794921
1682361454274972000,22.509971923828125,-0.3864613235414028,0.46443654362559317,-0.33357495200634
1682361454295101000,22.530100830078126,-0.4309240039937198,0.49483577354252334,-0.5667594385027885
1682361454315230000,22.55022998046875,-0.3720638187460601,0.6540998683035373,-0.669242492377758
1682361454335359000,22.57035888671875,-0.4700928158216178,0.8959533989459275,-0.8146335446089505
1682361454355488000,22.590488037109374,-0.6362057535640895,1.1629238351881503,-0.9285100991576909
1682361454375615700,22.61061572265625,-0.6504999441154301,1.432934369778633,-1.0002169064968824
1682361454395745000,22.6307451171875,-0.3748490655504167,1.6412234844714402,-0.8720137204319238
1682361454415874000,22.6508740234375,-0.07736030305624007,1.8248124576717615,-0.7357868023872375
1682361454436003000,22.671003173828126,0.051745969328284264,1.986359694933891,-0.6736515409916639
1682361454456131800,22.6911318359375,0.015606149932742118,1.775577009859681,-0.6465379086166619
1682361454476260900,22.7112607421875,-0.11548910431191324,1.61468502163589,-0.672138798341155
1682361454496390000,22.731389892578125,-0.3788895731128752,1.527751419070363,-0.7170031914621591
1682361454516519200,22.751519287109375,-0.6750083624280989,1.389030346122384,-0.8567308111041784
1682361454536648000,22.77164794921875,-0.6273069923155009,0.6670517043352127,-0.9555559269934892
1682361454556776000,22.79177587890625,-0.24952523431405424,-0.12735855193436146,-0.7684890485495328
1682361454576905000,22.811905029296874,-0.003948883756250143,-0.6618418607324361,-0.43639527501165865
1682361454597034000,22.832033935546875,0.13390943488255141,-0.7040197912484407,-0.2036135240972042
1682361454617163000,22.8521630859375,0.08384718085750938,-0.6320037718296051,-0.023873627540469167
1682361454637292000,22.8722919921875,0.0777135004080832,-0.518566777741909,0.35273908668160436
1682361454657420800,22.8924208984375,0.4281026629626751,-0.2801882297337055,0.5180056367278099
1682361454677549800,22.9125498046875,0.6513280655026435,-0.017299509847164152,0.7726718871921301
1682361454697679000,22.93267919921875,0.6454068587601185,0.21955694316029548,1.1408815147280693
1682361454717807400,22.952807373046873,0.41466216663122174,0.3117810533493757,1.3495850554406643
1682361454737936400,22.972936279296874,0.26090003028735514,0.03763268830180168,1.4683306773304938
1682361454758065200,22.993065185546875,0.46332127586007116,-0.5341138909637928,1.490117561724782
1682361454778194200,23.013194091796876,0.806792183458805,-0.9600894787698984,1.4225117599636314
1682361454798323200,23.0333232421875,1.1369618570663034,-1.2321937707692383,1.2809031488806009
1682361454818452500,23.053452392578127,1.3860732498824595,-1.2289648718506097,1.0708306579023599
1682361454838581200,23.073581298828124,1.4894798483431337,-1.215506255340576,0.9335568611532449
1682361454858710300,23.093710205078125,1.681544535074383,-1.270621408841014,0.835688607597351
1682361454878839300,23.11383935546875,1.4786112483263014,-1.271954703271389,0.9895277547001838
1682361454898967300,23.13396728515625,1.1194329223774373,-1.1197148080587387,1.0978484286874532
1682361454919096300,23.154096435546876,0.7391676769971847,-0.7623404627919197,1.1475579237520694
1682361454939225000,23.17422509765625,0.6229645791970193,-0.36222763051688667,1.4333844516336918
1682361454959354000,23.19435400390625,0.44558468976989385,-0.05517009855806827,1.4381114801555872
1682361454979483100,23.214483154296875,0.2631090846389532,0.035270050823688504,1.494554082867503
1682361454999612400,23.2346123046875,0.20808160942196846,0.19183423897624013,1.423122585338354
1682361455019741200,23.2547412109375,0.1304736152149737,0.3177911074191332,1.3419289877295493
1682361455039870200,23.2748701171875,-0.10094225417375564,0.4372667971491813,1.2857038271605967
1682361455059998200,23.294998291015624,-0.2768517787873745,0.47132513409554955,1.0595745198726654
1682361455080127200,23.315127197265625,-0.5204992071092128,0.42065000886917114,0.9326046749949455
1682361455100256300,23.33525634765625,-0.6653361325889825,0.30236674379408357,0.8656336640059947
1682361455120385300,23.35538525390625,-0.6181479726955295,0.0970318027317524,0.5616635766685009
1682361455140514000,23.37551416015625,-0.34601284716650843,-0.08374912731051444,0.27011282592117786
1682361455160643300,23.395643310546873,-0.24061025258302687,-0.28177053048908707,0.2927075195670128
1682361455180772400,23.4157724609375,-0.16144370382241904,-0.4595014253109693,0.1445458335787058
1682361455200901400,23.4359013671875,-0.16601064641177654,-0.5582324331760407,0.017625088539719582
1682361455221029400,23.456029296875,-0.2461919982381165,-0.644904169934988,-0.1243804129064083
1682361455241158100,23.476158203125,-0.24328034857511519,-0.7684574843674897,-0.3819388776808977
1682361455261287200,23.496287109375,-0.3688930797554552,-1.0169348170638084,-0.23657646702229976
1682361455281416200,23.516416259765624,-0.1779716447751969,-0.9137088358670472,-0.043622868627309797
1682361455301545200,23.536545166015625,-0.12063530809395015,-0.6433797368466854,-0.17345102554559708
1682361455321674200,23.55667431640625,-0.25222923257574437,-0.5979501110583544,-0.20230711767375467
1682361455341803300,23.57680322265625,-0.42483781594783065,-0.5216898781985044,-0.5534130501955747
1682361455361932300,23.596932373046876,-0.4371894941292703,-0.4667395598709583,-0.6335802273660898
1682361455382061300,23.617061279296873,-0.5282733482420444,-0.3623591479420662,-0.6393640714645386
1682361455402189300,23.637189208984374,-0.3928152226127684,-0.1771954727709293,-0.7683370728582143
1682361455422318300,23.657318359375,-0.3262169904589653,-0.47390112206339835,-0.8560673787593841
1682361455442447000,23.677447021484376,-0.11274126690849662,-0.564192218363285,-1.0630307978063822
1682361455462576000,23.697576171875,0.3071558777667582,-0.47427053989768025,-1.1277040532469749
1682361455482705400,23.717705322265626,0.6406034040011466,-0.27368483918905256,-1.1044915199637413
1682361455502834400,23.73783447265625,0.7261503745138644,-0.2464122168600559,-1.1689636998742818
1682361455522963200,23.757963134765625,0.6462776502452791,-0.1917839700937271,-1.2739590288311242
1682361455543092200,23.77809228515625,0.41332711863517757,-0.2696802797228098,-0.934192820969224
1682361455563220200,23.79822021484375,0.4387747174941003,-0.0476747743666172,-0.7562199340850114
1682361455583349200,23.818349365234376,0.45612464235424993,0.3812707691609859,-0.6959212404668331
1682361455603478300,23.838478271484377,0.2608255037464201,0.5751075801312923,-0.34429099180996414
1682361455623607000,23.85860693359375,0.22770590895488857,0.6678004768759012,0.06475801111459732
1682361455643736300,23.878736328125,0.13156170271262527,0.8968898030132054,0.47421033414304253
1682361455663865300,23.898865234375,-0.1953045454353094,1.0667898580789565,0.7179635609269142
1682361455683994400,23.918994384765625,-0.3795855925530195,1.2790385240525006,0.6430442212820052
1682361455704123100,23.939123046875,-0.16601605323925614,1.5131611681818962,0.20645605404675005
1682361455724251400,23.95925146484375,0.13875161421671509,1.8280103769302367,-0.3213859170407057
1682361455744380200,23.979380126953124,0.12610475248098374,1.8069097212344407,-0.8143430372297763
1682361455764509200,23.99950927734375,-0.2950700109146535,1.5829694484233856,-1.0829296764969825
1682361455784638200,24.01963818359375,-0.6249639363206922,1.3489356516212223,-1.4458119715303182
1682361455804767200,24.039767333984376,-0.8358551963359117,1.1212287197530268,-1.5372019689828156
1682361455824896000,24.05989599609375,-0.9013783466041088,0.9446569318383932,-1.2588421237200498
1682361455845025300,24.080025390625,-0.8214246660538017,0.7391092248082161,-0.9211755184859037
1682361455865154300,24.100154296875,-0.576397766072303,0.5073047944933176,-0.31988018865287304
1682361455885282300,24.1202822265625,-0.24073650931119916,0.06712532476782798,-0.1478349382519722
1682361455905411300,24.140411376953125,0.2981073327839374,-0.31956162422299383,0.0842564923107624
1682361455925540000,24.1605400390625,0.9276081818819045,-0.2567208449065685,0.5730149917662143
1682361455945669000,24.180669189453123,1.143207911849022,0.3589209901869297,0.9416092347055673
1682361455965798100,24.200798095703124,0.8702361893653869,0.5269184265017509,1.1324135461121796
1682361455985927200,24.22092724609375,0.5086041866540909,0.14403320788145063,0.7670365116536617
1682361456006056200,24.24105615234375,0.2891471967369318,-0.2926397150278091,0.29303602086901664
1682361456026185200,24.261185302734376,-0.10340075324177742,-0.5458879153877496,0.16837912910878658
1682361456046313200,24.281313232421876,-0.27260230464935303,-0.5925181491374969,0.31939620452821255
1682361456066442200,24.301442138671874,-0.10918386668786406,-0.632024230095744,0.6260615222990512
1682361456086571300,24.3215712890625,0.10300810066238045,-0.6599702216416597,0.8612135094761848
1682361456106700300,24.3417001953125,0.2594378487803042,-0.48132981075942516,0.8233207089334725
1682361456126829000,24.3618291015625,0.1317772451594472,-0.28973522575795646,0.5607482153892517
1682361456146958000,24.3819580078125,-0.25242767775729297,-0.4377788383245468,0.39422202067077156
1682361456167087400,24.40208740234375,-0.4843582186698913,-0.6804431008279324,0.27063948014378547
1682361456187216400,24.42221630859375,-0.48318639841154215,-0.7541641705989838,0.2899181811094284
1682361456207344400,24.442344482421873,-0.3691226507276296,-1.0033540354788302,0.43519642061591146
1682361456227473200,24.46247314453125,0.025790274816751477,-0.9977765276074408,0.06704875240027904
1682361456247602200,24.482602294921875,0.34958646786957975,-0.8887988510161637,-0.002083236014842987
1682361456267731200,24.502731201171876,0.4414129570432007,-1.0953642106562853,0.22558745549619197
1682361456287860200,24.522860107421874,0.7179822656273841,-1.0856874507725238,0.21810732887387274
1682361456307989200,24.5429892578125,0.804324916562438,-0.9126128573238849,0.32688977515399453
1682361456328118000,24.563117919921876,0.6225748492270707,-0.7330266900241375,0.25757190877795216
1682361456348247300,24.583247314453125,0.34722996787130833,-0.5879097785592079,0.13333645730018615
1682361456368376300,24.603376220703126,0.11043591257557273,-0.4456161078214645,0.1943716484993696
1682361456388504300,24.62350439453125,0.3355389455556869,-0.21036007574796675,0.18994740231633186
1682361456408633300,24.64363330078125,0.22216610274538395,0.09805003986358642,0.11699030265510081
1682361456428762000,24.66376220703125,-0.24240882643759248,-0.026781623941659925,0.20642273629903793
1682361456448891100,24.68389111328125,-0.3668224109612405,-0.09917875163257121,0.020699673679471016
1682361456469020200,24.704020263671875,-0.3115104197144508,-0.11112696357965468,0.2754325596392155
1682361456489149200,24.724149169921876,-0.03633855683803558,-0.03556815698742866,0.5554086079269648
1682361456509278200,24.7442783203125,0.22695918224081396,0.15826280876398086,0.37631285449266433
1682361456529406200,24.76440625,0.08458221713379024,-0.1336696347773075,0.35795360645949836
1682361456549535200,24.78453515625,0.14330664717257022,-0.3730968150556087,0.14747487276792526
1682361456569664300,24.804664306640625,0.3980792806208133,-0.35731004785895343,0.02868891886770725
1682361456589793300,24.824793212890626,0.4520768282681703,-0.40308980225920676,0.077123571690917
1682361456609922000,24.844922119140627,0.40162279844656584,-0.3279448371648788,-0.11505728876590728
1682361456630051000,24.865051025390624,0.23533669609427452,-0.2842050641596317,-0.1964507928609848
1682361456650180000,24.88518017578125,0.025380524972081184,-0.3690647830605507,-0.011031681624054908
