time,seconds_elapsed,z,y,x
1682361256963761400,0.047761474609375,-1.2487602901667356,0.7419907715938985,-1.9555613826967775
1682361256983889400,0.067889404296875,0.5088917714238167,0.16343144357353448,-1.7241750316634774
1682361257004016400,0.088016357421875,1.1019599556595085,-0.5829864968128502,-0.4937137107100337
1682361257024144400,0.108144287109375,0.5488473497152329,-2.2255998282074927,2.4099064481578765
1682361257044271400,0.128271240234375,1.1004279237866401,-3.075318714722991,4.197006868681312
1682361257064399400,0.1483994140625,3.092722269466519,-1.036907637773454,-0.3724174544893205
1682361257084526300,0.1685263671875,2.9287223783552645,-0.7792711393266916,-1.7987139936886727
1682361257104653300,0.1886533203125,2.594385209804773,-0.734269675822556,-1.507430223314464
1682361257124781300,0.20878125,1.8440367981016634,0.9242916046798229,-1.320961310763657
1682361257144908500,0.228908447265625,1.2874515476107598,0.5238076010048389,-0.24653335902169346
1682361257165036500,0.24903662109375,1.4765806192815303,0.6061416738856583,-0.4413048204936087
1682361257185163500,0.26916357421875,1.9187790276139973,0.0727611021650955,-0.40316023714691396
1682361257205291500,0.28929150390625,2.5158254678308962,0.3709511813290417,-1.582772756807506
1682361257225418200,0.309418212890625,2.805084892770648,-0.46843587892744687,-3.6750592163294553
1682361257245546200,0.329546142578125,3.1126135493725537,-0.22595782317854463,-4.277656860932708
1682361257265673500,0.349673583984375,3.058839873608947,1.260333092930168,-3.027773704215884
1682361257285800400,0.369800537109375,2.3829595506519077,2.0082880336254836,-1.547299438496679
1682361257305928400,0.389928466796875,0.3902507789522409,2.09320372049734,-1.704226322481781
1682361257326055200,0.41005517578125,0.15559154372811315,2.9166499555066228,-2.024400087253749
1682361257346183400,0.430183349609375,0.09677578214406966,4.419801186327636,-0.7281120299756526
1682361257366310400,0.450310302734375,0.46566696220338344,4.831422670088708,0.2679407425791025
1682361257386438400,0.4704384765625,1.0459300254017114,3.2516163618713616,-0.9573124152719974
1682361257406565400,0.4905654296875,3.044221565669775,2.6615865224182604,-2.105996128183603
1682361257426693400,0.510693359375,2.223501394623518,3.3933269720241426,-0.5544464848965406
1682361257446820600,0.530820556640625,0.3023322570025921,3.165235717013478,-0.16131225946247577
1682361257466947300,0.550947265625,-0.10236731854081153,2.1394252273157237,-1.5139607941269875
1682361257487075300,0.571075439453125,-0.6497492718786001,2.4578414808958766,-1.8040934947699308
1682361257507202300,0.591202392578125,-1.0075777906537056,2.376454114280641,-0.7701549359351396
1682361257527330000,0.611330078125,-1.7036656198590994,2.1183760095462203,0.026567688930034635
1682361257547457000,0.63145703125,-2.837543101043999,1.5566114567212759,-0.2817261068254709
1682361257567585000,0.6515849609375,-3.3520603111341596,0.6124392396599054,-1.0249094492048025
1682361257587712000,0.6717119140625,-2.9873800267681476,0.15001257455199957,-1.2567419365704058
1682361257607840000,0.691840087890625,-2.46057704333961,0.023777765950560567,-0.544704843083024
1682361257627967200,0.71196728515625,-2.7330381859526036,-0.3078530662506819,-0.09360065923929214
1682361257648094000,0.732093994140625,-2.94521758608222,-0.7637672807246446,-0.8817249671071767
1682361257668222000,0.752221923828125,-2.441410862837732,-1.1666735431104898,-1.1806576447993515
1682361257688349000,0.772348876953125,-1.891561934864521,-1.3209206864923237,-0.8414782969146967
1682361257708477000,0.792476806640625,-2.0267922430872916,-1.5375164417594671,-0.6378630192518234
1682361257728604200,0.812604248046875,-2.4483709111087024,-1.9237693832471965,-0.8166419618219136
1682361257748732200,0.832732177734375,-2.7572055357426404,-2.2191940528184175,-1.3693968403697012
1682361257768859000,0.85285888671875,-2.470028762295842,-2.1326415585249663,-1.326054542249441
1682361257788987000,0.87298681640625,-1.8275351606339214,-2.2894190971672534,-0.7380109081774949
1682361257809113900,0.89311376953125,-1.3451992415718734,-2.4154458159759638,-0.5837146649569273
1682361257829241000,0.913240966796875,-1.1544061822116374,-2.6005776347041127,-0.9243635008722543
1682361257849369000,0.933369140625,-0.9801349263243376,-2.5108587853342295,-0.875629572841525
1682361257869496000,0.95349609375,-0.8025687205448746,-2.1800006910711525,-0.809733497607708
1682361257889624000,0.9736240234375,-0.6672872666567564,-2.201242801064253,-0.6232219149589538
1682361257909751000,0.9937509765625,-0.650403205742687,-2.3456547791302205,-0.9057418025106191
1682361257929879000,1.013879150390625,-0.4385490920446813,-2.316762446644902,-1.500904328677058
1682361257950006000,1.034006103515625,-0.25950784527659415,-2.0523615686297414,-1.5708979023575782
1682361257970134000,1.054134033203125,0.01585398721396923,-1.5712760880202055,-1.1798556807667016
1682361257990261000,1.074260986328125,0.2423980127826333,-1.3557745577305556,-0.5924538517296314
1682361258010389000,1.094388916015625,0.20636910641565917,-1.5417098017960786,-0.04965513452887535
1682361258030516000,1.114515869140625,0.250875041487813,-1.4175509226858616,-0.1445405728816986
1682361258050643000,1.134642822265625,0.18595701750591395,-1.4376847791761158,-0.1531587636232376
1682361258070771000,1.15477099609375,-0.049805064393579956,-1.4373235446482895,-0.6335317120492457
1682361258090898000,1.17489794921875,-0.3685796298921108,-1.2078963648587464,-1.5332915175408124
1682361258111026200,1.195026123046875,-0.7573331560239195,-0.9814327110499143,-1.8949381332993507
1682361258131153200,1.215153076171875,-0.7258458386093377,-0.8663187236607074,-1.8387977284044026
1682361258151281200,1.23528125,-0.8376471943192183,-0.8301292199045419,-2.0592618495374917
1682361258171408000,1.255407958984375,-0.5272986579909921,-0.9701035077840089,-2.4415420880019663
1682361258191535900,1.275535888671875,-0.3274816035673022,-0.7710258735507726,-2.2671786237865685
1682361258211663000,1.2956630859375,-0.2207844391286373,-0.28319734842181205,-1.6596476144343613
1682361258231790000,1.3157900390625,-0.28086247573345896,0.04775865325778723,-1.2619108636409044
1682361258251918000,1.33591796875,-0.3033762130975723,0.15398820018470286,-1.3620143289029598
1682361258272045000,1.356045166015625,-0.0037274960905313488,0.4610916171118617,-1.676619792023301
1682361258292172800,1.3761728515625,0.2860679354220629,0.7005459776580333,-2.022347538638115
1682361258312300000,1.396300048828125,0.090182375228405,1.405444305306673,-2.0167244380593297
1682361258332428000,1.416427978515625,-0.3310696911871433,1.5458429560780524,-1.6060621547192335
1682361258352555000,1.436554931640625,-0.8542202895879745,1.423960205206275,-1.3693155918270348
1682361258372683000,1.45668310546875,-1.010159916101396,1.446290110436082,-1.4298247133255004
1682361258392810000,1.47681005859375,-0.598808773714304,1.549635041837394,-0.8101374022334814
1682361258412938200,1.496938232421875,-0.48121173733770845,1.3973755651414395,0.13608020305037496
1682361258433065000,1.51706494140625,-0.7265954879328608,1.279642335164547,0.751323394215107
1682361258453193000,1.53719287109375,-1.2632023647561668,1.2236696880519389,0.708929775121808
1682361258473320000,1.55731982421875,-1.5485782262608407,1.0743401273280382,-0.19590660298168658
1682361258493447200,1.577447265625,-1.382291977778077,0.7010439903080463,-0.8864110790967941
1682361258513575700,1.59757568359375,-1.0115168836683035,0.3290180193543434,-0.8705734584957361
1682361258533703000,1.617702880859375,-0.8806570456147194,0.27693858028799295,-0.8256985439807176
1682361258553831000,1.637830810546875,-0.6580746171534061,0.44790363423675295,-0.8191425464659928
1682361258573958000,1.6579580078125,-0.24210312148928642,0.4995639711081981,-0.3714075467944145
1682361258594086000,1.6780859375,-0.073494275277853,0.6908703868180514,0.32896424334049224
1682361258614212900,1.698212890625,-0.02047550953477621,0.9581187632188201,1.0457295343935489
1682361258634341000,1.718341064453125,-0.03947305547147989,1.195438011432439,1.402751412960887
1682361258654467800,1.7384677734375,-0.10399725783020257,1.2614952685773373,1.3414508488237857
1682361258674595800,1.758595947265625,-0.24271423912495374,0.9926672217696905,1.017632736200094
1682361258694722800,1.778722900390625,0.22726649462431667,0.9239053087759762,0.5941086331993342
1682361258714850800,1.798850830078125,0.4244222208842635,1.1671902604609727,0.8060591930091381
1682361258734978000,1.81897802734375,0.20037790317684412,1.1909525365814566,1.243280397450924
1682361258755106000,1.83910595703125,-0.12992343398630618,1.1851008879438043,1.1836246779114008
1682361258775232800,1.859232666015625,0.023614099821448326,0.9656460899837315,0.7881167090833187
1682361258795360800,1.87936083984375,0.724403823107481,0.9978549996711313,0.6114566583633423
1682361258815487700,1.89948779296875,0.8811588576570153,0.9804406312726437,0.9811018716603517
1682361258835615000,1.919614990234375,0.542463201636076,0.8694137670665979,0.9904021994471549
1682361258855743000,1.939742919921875,0.12243190918713807,0.7096676609423012,0.5242255341559648
1682361258875870000,1.959869873046875,-0.09479892911314963,0.5590773595675825,0.021243863558769224
1682361258895998000,1.979998046875,0.5962655189722776,0.5724567733615636,0.057496495679020876
1682361258916125000,2.000125,1.2271677593007684,0.5845744966566563,0.6384054555654526
1682361258936253000,2.0202529296875,1.1738511796548963,0.6295496566757559,1.1525731215655803
1682361258956380000,2.0403798828125,0.6627507922708987,0.556453294674307,0.8358020048439502
1682361258976508000,2.0605078125,0.2069470524340868,0.45461467618271706,0.5393669891864061
1682361258996635000,2.080634765625,0.17509587014317513,0.2763845996670425,0.5022808288514614
1682361259016763000,2.100762939453125,0.5980383738636971,0.11263824492543935,0.7079179677307605
1682361259036889900,2.120889892578125,1.1932368481263518,0.1742687716692686,1.0304314274966717
1682361259057017900,2.141017822265625,0.7930448131352662,0.3411754901379347,0.9141478118062019
1682361259077144800,2.161144775390625,0.0000938157632946968,0.2533542910829186,0.7948053930670023
1682361259097272800,2.18127294921875,-0.15629501582235097,-0.21810762113481758,0.32884090922176834
1682361259117399800,2.20139990234375,0.21273498818576334,-0.2523281629055738,0.0010515548795461654
1682361259137528000,2.221528076171875,0.6116241238847374,-0.0960489291742444,-0.10921090082526207
1682361259157655000,2.241655029296875,0.3023532997906208,0.14771160413324833,0.17251169886887072
1682361259177783000,2.261782958984375,-0.07113631397485733,-0.03060731970965862,0.6098299339443445
1682361259197909800,2.28190966796875,-0.0013566753059625625,-0.244839852976799,0.5838017587184906
1682361259218037000,2.302037109375,0.7943067958950996,-0.20288462530076504,0.46413317676484583
1682361259238165000,2.3221650390625,1.2566972206458449,-0.024167349790036676,0.6723322750866413
1682361259258292000,2.3422919921875,1.1593035988643765,0.1386225810095668,1.3176093699872493
1682361259278420000,2.362419921875,0.9069333503827453,0.4708621927589178,1.9124638531178235
1682361259298546700,2.382546630859375,0.8016239870406687,0.8064242269292473,2.0716221494168043
1682361259318674700,2.4026748046875,0.9478270863071083,0.8726260071113705,2.0010276872336865
1682361259338802000,2.422802001953125,0.43055064063668247,0.8811959747970104,1.4739187065958976
1682361259358930000,2.442929931640625,-0.4794236848771572,0.8168938907563685,1.0554828666448592
1682361259379057000,2.463056884765625,-1.0211616409786044,0.9536527237206697,1.0727911443203686
1682361259399185000,2.483184814453125,-0.9274619052790105,1.0419985311716795,1.0425339532226323
1682361259419312000,2.50331201171875,-0.8392873627416789,1.486724704416096,1.1651882729887961
1682361259439440100,2.523440185546875,-1.140694321592897,1.8469719747707247,1.7910095567911861
1682361259459566800,2.54356689453125,-1.0598067211933433,1.1335203383103012,1.2107500007241965
1682361259479694800,2.56369482421875,-1.0303342507325113,0.6255320915974676,0.7488748320192098
1682361259499821800,2.58382177734375,-0.7732809590011834,0.725583242150396,0.6857751095056533
1682361259519948800,2.60394873046875,-0.46842882813215253,1.1737206851430237,1.1888865439623593
1682361259540075800,2.62407568359375,-0.35547932530045506,0.9051423753127456,1.2381149775117635
1682361259560203800,2.644203857421875,0.0824701934158802,0.6779911776311696,0.7034703406721353
1682361259580330800,2.664330810546875,0.6114654261916875,0.6352329630091786,0.0027852468043565747
1682361259600458800,2.684458740234375,0.9264427913643419,1.1002921685777605,-0.5478764588564634
1682361259620586000,2.7045859375,0.5535404759675264,1.7408742375299333,-0.6387941626220941
1682361259640714000,2.7247138671875,0.12621902651041744,1.9625936194211244,-0.6225070446878671
1682361259660840700,2.7448408203125,0.1423357563138008,1.2588532296359538,-1.6945488319456576
1682361259680968700,2.76496875,0.6042427814617752,1.5092710288755595,-2.6021464914560317
1682361259701096000,2.785095947265625,0.4212953210353851,2.3901379178486764,-2.0460919868409633
1682361259721224000,2.805223876953125,-0.3710807990580797,2.83068695153892,-1.8635645053923129
1682361259741351000,2.825350830078125,-0.641353199455142,2.307182132872939,-2.3578946675002572
1682361259761479000,2.84547900390625,0.6431026734709739,1.8591884822651743,-1.8227771524518728
1682361259781605600,2.865605712890625,1.6009353132247923,1.7733476433724165,-1.3285334995836018
1682361259801733600,2.885733642578125,1.3739911824226378,2.1295093979790805,-0.8811363535642623
1682361259821860900,2.90586083984375,0.6553379587311298,1.813330401931703,-0.867932588598132
1682361259841988900,2.92598876953125,0.5446429568279534,0.8611489198073744,-1.4358523030519486
1682361259862115800,2.94611572265625,0.7433090145856142,0.282805718755722,-1.2367442736804484
1682361259882243800,2.966243896484375,0.8851748883653432,0.5387915273860097,-0.17988778059482574
1682361259902370800,2.986370849609375,0.215543140941672,0.6369347984910011,0.38723873765468597
1682361259922498800,3.006498779296875,0.16981939104497432,0.45856209863424297,-0.19023674065172672
1682361259942625800,3.026625732421875,0.483552674440667,-0.04364624950289726,-1.054515482917428
1682361259962753800,3.04675390625,1.1631512872684746,-0.36374271125495433,-0.6926765594571829
1682361259982880800,3.066880859375,1.4287573763549326,-0.12468670237660408,0.19695231264233587
1682361260003008800,3.0870087890625,0.8597205675046891,0.10828326458632945,0.38198330134451386
1682361260023136000,3.107135986328125,-0.09371460447516292,-0.05977905365824699,0.24941373676359652
1682361260043264000,3.127263916015625,-0.6886755071222782,-0.3418751628398895,-0.12084639356136322
1682361260063390700,3.147390625,-1.1166735406666994,-0.6479132886230945,-0.14386369653344153
1682361260083518700,3.167518798828125,-0.8343278406381607,-0.8807903166055678,0.18031857322752476
1682361260103645700,3.187645751953125,-0.3226566676288843,-0.8507587509572505,0.43811201580166814
1682361260123773700,3.207773681640625,-0.29901684884428975,-1.0195441227793693,0.3348129693686962
1682361260143901000,3.22790087890625,-0.700908381229639,-1.6085913809359074,0.019488544324040413
1682361260164029000,3.24802880859375,-0.953072293484211,-2.033990630158782,-0.32468086693286896
1682361260184155600,3.26815576171875,-1.0345780257821082,-1.860643649509549,-0.2579062552988529
1682361260204283600,3.28828369140625,-0.8459224168419838,-1.507393106174469,-0.48475744712054725
1682361260224411000,3.308410888671875,-0.6957693378407508,-1.040275945162773,-0.945250221556425
1682361260244539000,3.328538818359375,-0.6555891570132225,-0.9633540335237979,-0.9862135155856608
1682361260264665900,3.348665771484375,-0.8021078250348568,-1.0975813021838665,-0.785827721363306
1682361260284793900,3.3687939453125,-1.1021897458273917,-1.1780500926494597,-0.7321662738025188
1682361260304920800,3.3889208984375,-1.195985562312603,-1.3992314221411943,-0.5908253737449646
1682361260325048800,3.409048828125,-0.9210265384692699,-1.480546015781164,-0.5315460863023996
1682361260345175800,3.42917578125,-0.7465794145584106,-1.3818085781753062,-0.5404360797226428
1682361260365303800,3.4493037109375,-0.7215641427021473,-1.2765379394084215,-0.3367214333385229
1682361260385430800,3.4694306640625,-0.875715497559309,-1.2210276491105556,-0.32102117538154123
1682361260405558800,3.489558837890625,-0.964297451853752,-1.2584405571818351,-0.47283495413661003
1682361260425686800,3.509686767578125,-0.7110697097599505,-1.4784633642882108,-0.5879723224014044
1682361260445814000,3.52981396484375,0.12263742343029006,-1.0887100134640932,-0.9604103812873362
1682361260465942000,3.54994189453125,0.2389607135440223,-0.11697627412974834,-1.1021423264890908
1682361260486068700,3.57006884765625,-0.6329822614729405,0.043376200389862056,-1.5891291400969028
1682361260506196700,3.59019677734375,-1.0851122812330722,-0.5829033485740422,-1.8163439045339822
1682361260526325000,3.610324951171875,-0.3678875559747219,-0.9384685985922813,-2.0671423736542462
1682361260546453000,3.630452880859375,0.3114776864886284,-1.0836948156505823,-1.7033230900317429
1682361260566580000,3.650580078125,0.5921253504276275,-0.647792877113819,-1.7224597521781921
1682361260586708000,3.6707080078125,0.09328618646264075,-0.41595512905120846,-1.8347113358736038
1682361260606835200,3.690835205078125,-0.24523029533280058,-0.36229075888097284,-1.4789286437124014
1682361260626963200,3.710963134765625,-0.012129998254776,-0.6224193664044141,-1.257605275401473
1682361260647090000,3.73108984375,0.5967617780566216,-0.6495803450524806,-1.1894383326262234
1682361260667218000,3.751218017578125,0.7802204028755426,-0.19215631053745746,-1.2303601256012915
1682361260687345200,3.77134521484375,0.36015023972094057,0.3228630038559437,-1.6119816078960894
1682361260707473200,3.79147314453125,0.1085684747358784,0.6415174501061439,-1.236456104388833
1682361260727600000,3.81160009765625,0.19732940232641993,0.9364128351062536,-0.6997253089249134
1682361260747728100,3.83172802734375,0.41092480673380194,0.9804162274837493,-0.19123627308309077
1682361260767854800,3.851854736328125,0.4387842525074258,1.0543611691385506,-0.11800094100236892
1682361260787982800,3.87198291015625,-0.25324874834921207,1.446233996334672,-0.563643936830759
1682361260808110800,3.89211083984375,-0.9017512715697288,1.7082067704200743,-0.8140624667227268
1682361260828238000,3.912238037109375,-0.9034563219219446,1.4218401443123816,-0.5083107566654682
1682361260848366000,3.932365966796875,-0.288909880849719,0.8826613711744546,0.01994914757311344
1682361260868493000,3.9524931640625,0.28275661891698833,0.5418424393892288,0.31814591220617294
1682361260888621000,3.97262109375,0.43030459345374256,0.4739192422419786,0.43763796854913234
1682361260908748000,3.992748046875,0.009955576825141907,0.5753285294055939,-0.01556990957558155
1682361260928876000,4.0128759765625,-0.6050637789884582,0.5775789386808872,-0.19960019680261612
1682361260949003000,4.0330029296875,-0.9073153354376554,0.4278694387286901,-0.00563712910413742
1682361260969131000,4.053131103515625,-0.5370622193753719,0.31958558962047096,0.0335316827237606
1682361260989258000,4.073258056640625,-0.21129998694658278,0.2188029099225998,0.5631634598374367
1682361261009386000,4.093385986328125,-0.005257772114442195,0.33022973323166366,0.7959276750952005
1682361261029513200,4.11351318359375,-0.491216414001584,0.19444062208235263,0.6755933227092027
1682361261049641200,4.13364111328125,-0.7565344068616628,0.4850011927485466,0.597674801248312
1682361261069768000,4.153767822265625,-0.5614028799057007,0.3767810565263033,0.6156710611879825
1682361261089896000,4.17389599609375,0.09525018001198768,0.1487543911844492,0.8246820604145526
1682361261110024000,4.19402392578125,0.3367681950896978,0.024802725084125996,1.4284458261877298
1682361261130151000,4.21415087890625,0.2619628372132778,0.17296324202865362,1.716062744617462
1682361261150279200,4.234279052734375,-0.254260007750988,0.40544834808409214,1.88798290733397
1682361261170406100,4.25440625,-0.5796621746957302,0.19166092823594807,1.3988152425557374
1682361261190534100,4.2745341796875,-0.296530292725563,-0.2279930553331971,1.1442302406340836
1682361261210660900,4.294660888671875,0.008028992676734924,-0.23878742107003925,1.3380880943924187
1682361261230788900,4.314788818359375,0.11593407160043716,-0.12239859143942594,1.5021511138677597
1682361261250916000,4.334916015625,0.09280570946931839,-0.03012976532578468,1.4560907889604568
1682361261271044000,4.355044189453125,-0.22986790929436682,0.22323592393398284,1.0997013630777597
1682361261291171000,4.375171142578125,-0.7484545607805252,0.390174206584692,0.28749066170156
1682361261311299000,4.395299072265625,-0.7743757685005664,0.40648733574301005,0.1555517962396145
1682361261331425800,4.41542578125,-0.3476151677966118,0.338769013518095,0.6041051265567541
1682361261351553800,4.4355537109375,0.012606958983605726,0.010838204878568649,0.9108300655603409
1682361261371682000,4.45568212890625,-0.18370353949069976,-0.10439181010574101,0.789768567943573
1682361261391809000,4.47580908203125,-0.5552911190271377,0.19792349576205015,0.1653933912962675
1682361261411937000,4.49593701171875,-0.7082534832954406,0.240447755497694,0.043486090505123136
1682361261432064000,4.51606396484375,-0.23091537252068517,0.1776800414174795,0.5176140070617199
1682361261452192000,4.53619189453125,0.2091857712715864,-0.06674246293008328,0.5720411782979965
1682361261472319200,4.5563193359375,0.46239480866491794,-0.36049101598262784,0.6545669012933969
1682361261492447200,4.576447265625,0.34833003806769847,-0.38301264439225197,0.4061807540118694
1682361261512573400,4.596573486328125,0.0766074342957465,-0.3707663262814283,-0.32424422908127304
1682361261532701400,4.616701416015625,0.374571563783288,-0.5365750203803181,0.15801555600464343
1682361261552829400,4.636829345703125,1.1624959651648998,-0.36237113064080473,0.548940288695693
1682361261572956700,4.656956787109375,1.3759686199754475,-0.09313041137903928,0.8616460556745529
1682361261593084700,4.677084716796875,0.44901276452243327,0.3825187233954668,0.4587719419926405
1682361261613211600,4.697211669921875,-0.6683142716169357,0.4596002095103264,-0.03561959491372108
1682361261633339600,4.717339599609375,-0.882789381468296,0.36329935140162706,0.2872147673696279
1682361261653466400,4.73746630859375,-0.28800445644259454,0.10634031382501125,0.6336012701541185
1682361261673594400,4.757594482421875,0.05003923847563564,0.12173311326801776,0.6475742659270763
1682361261693721600,4.7777216796875,-0.1994657202353701,0.5767807740405202,0.20377309857308865
1682361261713849600,4.797849609375,-0.4860497884860262,0.6560042406201362,-0.1434071849375963
1682361261733977600,4.8179775390625,0.06316581001970917,0.43061523030549287,-0.0050958618342876435
1682361261754104600,4.8381044921875,0.5478747052907943,0.24964929908514022,0.04462883079946041
1682361261774232600,4.858232666015625,0.7902262485831976,0.11847820312529801,0.11588088010847568
1682361261794359600,4.878359619140625,0.5388181596646086,0.21495003388673065,-0.2716314137905836
1682361261814487600,4.898487548828125,-0.10067335583819076,0.2038902952119708,-0.5730839653491974
1682361261834614500,4.918614501953125,-0.01887771894931793,0.01417524034678936,-0.4537117359936237
1682361261854742500,4.938742431640625,0.5067547593951225,-0.2198062417462468,-0.27358020977079867
1682361261874869500,4.958869384765625,0.6706646341353655,-0.09996610261797904,0.005339607462286949
1682361261894997500,4.97899755859375,0.6975169852256774,0.014401450318098067,0.2672247032642364
1682361261915125500,4.99912548828125,0.5627566326022148,-0.030396599568426608,-0.07525368616580963
1682361261935252700,5.019252685546875,0.4440805688172579,-0.12792144651412962,0.08737842372357844
1682361261955380700,5.039380615234375,0.7298860539108515,-0.1694175322458148,0.1616559583336115
1682361261975507500,5.059507568359375,1.0623773023337124,0.0195087103292346,0.6227285784840584
1682361261995635500,5.079635498046875,0.8980775514930486,0.2786003760203719,1.0533230582624673
1682361262015762700,5.0997626953125,0.10939093356728553,0.6511357578009367,0.4963631292402744
1682361262035890700,5.119890625,-0.6176362237811088,0.43406478623747824,0.36760698546767234
1682361262056018700,5.140018798828125,-0.46221886757612224,0.20335370411723852,0.32242753504812716
1682361262076145700,5.160145751953125,-0.06099949883129447,0.14038432998508213,0.43341479789614673
1682361262096273700,5.180273681640625,0.023677794441115108,0.18664456137865781,0.7867945205688476
1682361262116400400,5.200400390625,-0.2830693381279707,0.15353431893736122,0.4460521611511707
1682361262136528400,5.2205283203125,-0.5684440305888653,0.14857581974714992,0.08473463121652602
1682361262156655600,5.240655517578125,-0.5018967979699372,-0.25861001965403557,-0.22671733630895613
1682361262176783600,5.26078369140625,-0.18000645680474117,-0.5778598014488816,-0.25973990046679973
1682361262196911600,5.28091162109375,0.04134031064808368,-0.5138607920080424,0.004590250399708748
1682361262217038600,5.30103857421875,0.11180738359186798,-0.2749956295266747,0.20546353587806224
1682361262237166600,5.32116650390625,-0.1858428348080255,-0.30883272493779657,-0.2558598441630602
1682361262257293600,5.34129345703125,-0.2896136086722836,-0.3707926297664642,-0.06481997043490409
1682361262277421600,5.361421630859375,-0.03287179404292256,-0.17857845156192778,0.39885494116842746
1682361262297548500,5.381548583984375,0.10501111104786395,-0.10747048689872025,0.5571177499324083
1682361262317676500,5.401676513671875,0.08473116061780601,0.12113164024353026,0.7062041495501995
1682361262337804500,5.421804443359375,-0.03858370541632175,0.24318477924615142,0.5018073661208152
1682361262357931500,5.441931640625,-0.2722954306572676,0.23883301377743482,-0.012801029384136199
1682361262378059500,5.4620595703125,-0.26303715191390364,0.404706297545135,0.3426303651213646
1682361262398186800,5.482186767578125,-0.02764846990406513,0.5163765742212534,0.35301907266676424
1682361262418314500,5.502314453125,0.27478848958201707,0.7293228670701384,0.21715631175935268
1682361262438441500,5.52244140625,0.3977361662715673,0.7160860766172409,-0.1649836414515972
1682361262458569500,5.542569580078125,0.2059364506194368,0.5041115514099598,-0.836412245696783
1682361262478697500,5.562697509765625,0.028363961229659614,0.5173728917822241,-0.6660936729580164
1682361262498824700,5.58282470703125,0.15770524794645607,0.7313277771517634,-0.38737317768931384
1682361262518952700,5.60295263671875,0.44866910218391565,0.7254512863337993,-0.14828852723836897
1682361262539079400,5.623079345703125,0.32097678825054315,0.5775958898156881,-0.0034609541088342663
1682361262559207400,5.64320751953125,-0.22801497490406036,0.6434086706802249,-0.27379005312919613
1682361262579334400,5.66333447265625,0.13558047336731105,0.9484887650862336,-0.10151742371320724
1682361262599462400,5.68346240234375,1.2649322572886943,1.4593284557074309,0.7162286999583244
1682361262619590400,5.70359033203125,2.301099013566971,1.6564868123158811,1.460284733518958
1682361262639717600,5.723717529296875,2.563928112220764,1.8276719387561082,1.1474287444144486
1682361262659845600,5.743845703125,1.6635674182265996,2.0791095825627446,0.4265998571842909
1682361262679972400,5.763972412109375,0.6435545088917016,2.2502391794234513,0.5455582450419664
1682361262700100400,5.784100341796875,0.24125556474924087,2.4608307258397337,1.003602457281947
1682361262720228400,5.804228271484375,-0.3438309730827808,2.143911725080013,1.0106389317899942
1682361262740355600,5.82435546875,-0.9501625435173511,1.8013631930232048,0.968674936285615
1682361262760483600,5.844483642578125,-1.2426269019782543,1.851380146601796,1.2104080554187298
1682361262780610600,5.864610595703125,-1.5686007313311099,1.4905898554116486,1.0797224048882723
1682361262800738600,5.884738525390625,-1.1018389596283436,1.0063736755609511,1.248990591791272
1682361262820866600,5.904866455078125,-0.21710193295730276,0.7301502578049898,1.0489432357430457
1682361262840993300,5.9249931640625,0.2736755051051266,0.31743513358831404,0.08304419391155242
1682361262861121500,5.94512158203125,0.20661445947885512,0.135630705717206,-0.9747218152344226
1682361262881248500,5.96524853515625,-0.2072480812072754,-0.27818974939286706,-1.7899030568540095
1682361262901376500,5.98537646484375,0.030489830809831617,-0.6524269666552543,-1.5282102687537669
1682361262921503500,6.00550341796875,0.8887725475311279,-0.7552765157550573,-0.9890601371884346
1682361262941631500,6.025631591796875,1.1665794350862502,-1.0884990010619162,-0.5646060598611832
1682361262961759500,6.045759521484375,0.8063724967420101,-1.2653215488672256,-0.36252515215873715
1682361262981886700,6.06588671875,0.0675298139154911,-1.2604291006505488,-0.6659077949970961
1682361263002014700,6.0860146484375,-0.5725380584368482,-1.263660922178626,-0.5209165557384491
1682361263022141400,6.106141357421875,-0.37348610663414,-1.2969535354495048,-0.23394553399682044
1682361263042269400,6.12626953125,0.006080196696519852,-1.4900994415462017,-0.2936743187725544
1682361263062397400,6.1463974609375,-0.3055073068421334,-1.6465344503611326,-0.33320261156260966
1682361263082524400,6.1665244140625,-1.097184996342659,-1.5540613338470457,-1.3354811267644167
1682361263102652700,6.186652587890625,-1.2835773365259169,-1.728797138506174,-1.3808786038488148
1682361263122779600,6.206779541015625,-0.7273615038692951,-1.5513170035749673,-0.8781763347148894
1682361263142907600,6.22690771484375,-0.7298925567168743,-1.8686364018291235,-0.691986239105463
1682361263163035600,6.24703564453125,-0.885135652333498,-2.0956337241232394,-0.8249053477764129
1682361263183162400,6.267162353515625,-1.2473416555404662,-2.060516233512759,-0.86109192892313
1682361263203290400,6.287290283203125,-1.3676163866937159,-1.996212980428338,-0.7972796742260455
1682361263223417600,6.30741748046875,-0.9027110565125942,-1.7501006232976912,-0.13999299257993697
1682361263243545600,6.327545654296875,-0.5386451046526431,-1.644168890273571,-0.1253869596004486
1682361263263673600,6.347673583984375,-0.4957237353581935,-1.4680582901299,-0.670270081859827
1682361263283800600,6.367800537109375,-0.5244155037701129,-1.3757856646239757,-1.1620137346059083
1682361263303928600,6.387928466796875,-0.2913946834027767,-1.4197206679403782,-1.4347241758048535
1682361263324055600,6.4080556640625,0.1545966874718666,-0.951781669151783,-1.3693465714871882
1682361263344183600,6.42818359375,0.42558341015074397,-0.4437473913401365,-1.1405980216115712
1682361263364311600,6.4483115234375,0.4850082435438409,-0.1821294220417738,-1.3946288967818021
1682361263384438500,6.4684384765625,0.10383439541868865,-0.21137480574846265,-1.3971563694328069
1682361263404566500,6.48856640625,-0.2570972770035267,-0.3090051588952541,-1.2413596585214137
1682361263424693500,6.508693603515625,-0.13810381783246994,-0.12339198639094828,-0.42540334087610243
1682361263444821500,6.528821533203125,0.0069242463052272794,-0.011297639083862304,-0.007122983747720718
1682361263464949500,6.548949462890625,0.0017231522644869982,0.06467325544059276,0.0732809247881174
1682361263485076500,6.569076416015625,0.017484209631150587,0.1839542993813753,0.20168927803635597
1682361263505204500,6.58920458984375,0.03622399054765701,0.39469723696708675,0.7578565953761339
1682361263525331500,6.60933154296875,0.01166471883058548,0.49098611237704753,1.264326692610979
1682361263545459500,6.62945947265625,-0.026112930899858472,0.6297212138503789,0.9047393474698067
1682361263565587500,6.64958740234375,0.006503975066542625,0.8938082036107778,0.498514169794321
1682361263585714700,6.669714599609375,0.09660918427235446,1.1201385864287614,-0.07323182494938373
1682361263605842700,6.6898427734375,0.05964812075495719,1.1406214024871586,-0.216392926171422
1682361263625970700,6.709970703125,0.026660646176803856,0.9485732284992933,-0.37535599215924736
1682361263646097400,6.730097412109375,0.3369219243466854,0.7795154694765806,-0.687771251758933
1682361263666225400,6.750225341796875,0.5230565634418278,0.8789572559595108,-0.80840546387434
1682361263686352400,6.770352294921875,0.42371524165868757,0.8908674739837646,-1.0554390275031327
1682361263706480400,6.79048046875,0.07446226179348304,1.0417658914595842,-1.2894547041267155
1682361263726608600,6.810608642578125,-0.5405804931620135,0.8295622336715459,-1.1388239976763725
1682361263746735600,6.830735595703125,-0.39741990339662875,0.5878197621881961,-1.023806456398964
1682361263766863600,6.850863525390625,0.027083237236738205,0.5166396090716123,-0.37659868569672106
1682361263786990300,6.870990234375,-0.06727087071835994,0.27445523903965946,-0.023094459861516953
1682361263807118300,6.891118408203125,-0.20676924818176776,0.22212767043113707,0.04708908343315124
1682361263827246300,6.911246337890625,-0.3467478103775531,0.10014321275055407,0.43730654463768004
1682361263847373600,6.93137353515625,0.10974522689767181,-0.010301029261946678,0.7877847006499766
1682361263867501600,6.95150146484375,0.6750386845011264,0.03629237960875034,1.0821218672454356
1682361263887629600,6.971629638671875,0.6693565472114831,-0.17193185315430162,0.8704284970670938
1682361263907756500,6.991756591796875,0.43498080510385334,-0.09644552727639674,0.2684983764618635
1682361263927884500,7.011884521484375,0.3068810794133693,0.05215747273862362,-0.02418985388278961
1682361263948011500,7.032011474609375,0.17231997568905352,0.06271802971959113,0.03736731536388397
1682361263968139500,7.052139404296875,0.07347849318683147,-0.07794833207726479,-0.04962766200006008
1682361263988267500,7.072267578125,-0.16784772564582526,-0.1715887388050556,-0.03372515946924686
1682361264008394500,7.09239453125,-0.34066162233166397,-0.13045125725269316,-0.10869242990911006
1682361264028522500,7.1125224609375,-0.37948381267897785,0.1309334878116846,-0.056876317954063414
1682361264048650500,7.132650390625,-0.4135018176149577,0.0035427871733903884,0.232426361605525
1682361264068777500,7.152777587890625,0.16379523538462817,0.09567103577256202,0.4848801967173815
1682361264088905500,7.172905517578125,0.3469546580612659,0.00821603968143463,0.765502726215124
1682361264109032700,7.19303271484375,0.19328845637254416,0.008726911813020705,0.7521604295611382
1682361264129160400,7.213160400390625,-0.09010163814239204,0.0350000017106533,0.4345101919174194
1682361264149288400,7.233288330078125,-0.379175769643113,0.041133389899134634,0.2530214058667421
1682361264169415400,7.25341552734375,0.03377776643931865,-0.06686345896124839,0.5986603051543236
1682361264189543400,7.27354345703125,0.47555393077172337,-0.20628946530818937,0.7874374946475029
1682361264209671400,7.29367138671875,0.27616496556699277,-0.34521044474244117,0.853363380497694
1682361264229798700,7.313798583984375,0.023939824644476172,-0.010788520517945288,0.536780479824543
1682361264249926700,7.3339267578125,-0.2677255654584616,0.2031646112859249,0.783791247099638
1682361264270053600,7.3540537109375,-0.11219093954935669,0.3345592868685722,1.1121896732509136
1682361264290181600,7.374181640625,0.19308518888540566,0.20234335803091524,0.998456911087036
1682361264310309400,7.394309326171875,0.2667512405335903,0.25464988385140896,1.0666408049970864
1682361264330436400,7.414436279296875,0.23989947396516798,0.24947861869335172,0.951578255534172
1682361264350564400,7.434564453125,0.22164668198116122,0.3415402317970991,0.6855804637163877
1682361264370692600,7.454692626953125,0.32688042280375956,0.18276830446720121,0.9104133014529943
1682361264390819600,7.474819580078125,0.6028910745918751,-0.017338088291883467,0.7967150260806083
1682361264410947600,7.494947509765625,0.7096482986547052,0.05260346294045448,0.6989402960270643
1682361264431074600,7.515074462890625,0.3953331967830658,0.18203180688619613,0.6497112779557704
1682361264451202600,7.53520263671875,-0.16742979249469936,0.13840513886660336,0.2862321860730648
1682361264471330300,7.555330322265625,-0.1747400424428284,0.07346212657392025,0.2370487607091665
1682361264491457500,7.57545751953125,0.03117079881131649,-0.24338468573242425,0.057743163916468616
1682361264511585500,7.59558544921875,0.15010346770584582,0.05085895736068487,-0.2409445991039276
1682361264531713800,7.6157138671875,-0.14964052636921404,0.290571676582098,-0.016996142986416815
1682361264551840500,7.635840576171875,-0.39426702885627746,0.3299827727332711,0.1803238339245319
1682361264571968500,7.655968505859375,-0.17602014538124203,0.06149404088258743,0.012314122650027274
1682361264592096500,7.676096435546875,0.1936573627501726,-0.1525078984990716,-0.023686580535769462
1682361264612223700,7.6962236328125,0.3085773619372397,-0.24059651631861922,-0.17404957596063614
1682361264632351700,7.716351806640625,0.11689137232527136,-0.029379823741316792,-0.2770926018059254
1682361264652478700,7.736478759765625,-0.4356044168949127,0.08881225591897964,0.04910919108390808
1682361264672606700,7.756606689453125,-0.48337256863340733,-0.009163257403671741,0.17103052040040492
1682361264692734700,7.776734619140625,-0.19754428718611597,-0.21714725167006252,-0.03660685238540173
1682361264712861400,7.796861328125,-0.024110870362445712,-0.5237348280295729,-0.3322609467983246
1682361264732989400,7.816989501953125,-0.1904344551809132,-0.4989262577265501,-0.6895557970881462
1682361264753117400,7.837117431640625,-0.2662286779642105,-0.27555881636738777,-0.3352355786949396
1682361264773244700,7.85724462890625,-0.1087432833135128,-0.27693302733004094,-0.12565700871348381
1682361264793372700,7.87737255859375,0.08579846105575561,-0.4473407396569848,-0.2424474048823118
1682361264813500700,7.897500732421875,0.24723273946270344,-0.5882008704602718,-0.4748030393391847
1682361264833627600,7.917627685546875,0.3183123548142612,-0.3533107490897178,-0.4527671486198902
1682361264853755600,7.937755615234375,0.3662586395986378,-0.0015814239725470542,-0.13126374267935753
1682361264873882600,7.957882568359375,0.44733167956769465,0.08785071741044521,0.10542553706765175
1682361264894010600,7.9780107421875,0.4520727366149425,0.13650339689850807,-0.01153787758052349
1682361264914138600,7.998138671875,0.28060974308140574,0.21438860061168669,-0.24426351439356803
1682361264934265600,8.018265625,-0.052958852249383924,0.2365086624830961,-0.17327859158813952
1682361264954393600,8.0383935546875,0.05382518675513565,0.554468112206459,0.2565869893938303
1682361264974521600,8.058521484375,0.264367414136976,0.9036711337164044,0.38343174658715723
1682361264994648600,8.078648681640624,0.3486258792091161,0.9281509104564786,0.4413502670705318
1682361265014776800,8.09877685546875,0.13591660998649893,0.8892740673124789,0.1390238552868366
1682361265034904800,8.11890478515625,-0.2513573451120406,0.8034247528523206,0.2733504926681518
1682361265055031600,8.139031494140625,-0.03226210117936134,1.0957646081507206,0.5961410158097744
1682361265075159600,8.15915966796875,0.005119169644638896,1.3094418456226586,0.7830074032455683
1682361265095287600,8.17928759765625,0.06254267315268516,1.2655205785706638,0.7036059497505426
1682361265115414500,8.19941455078125,-0.025222704061865806,1.2969070659592747,0.5881850883692502
1682361265135542500,8.21954248046875,-0.24212354322280732,1.5100927205219863,0.47511985020339487
1682361265155670500,8.23967041015625,-0.38041148545052855,1.3524474591344595,0.647397740316391
1682361265175797800,8.2597978515625,0.11484631289634853,1.0460980754449962,0.47748190315961836
1682361265195925800,8.27992578125,0.7790220599364489,0.8922232725068926,0.3160872261106968
1682361265216053800,8.3000537109375,1.0297095429629086,1.0125000494867562,0.3034375878959894
1682361265236180500,8.320180419921876,0.8356447684556245,1.2771557790458201,-0.02175648925602436
1682361265256308500,8.34030859375,0.38499475812017914,1.338816993188858,-0.36319150711297987
1682361265276436500,8.3604365234375,0.3656816434282809,1.174345977434516,-0.615685089713335
1682361265296563700,8.380563720703124,0.6873948196619749,1.0467600464850664,-0.5489461339145898
1682361265316691700,8.400691650390625,0.6660071637183428,1.0498948373794554,-0.18601298547685144
1682361265336819700,8.42081982421875,0.11784252643710932,1.041721467795968,-0.028844401690363883
1682361265356946700,8.44094677734375,-0.10140051933526992,1.080273024508357,0.1140016422331333
1682361265377074700,8.46107470703125,0.024462245649960822,0.784695502462983,-0.5043967980921268
1682361265397201700,8.48120166015625,0.15504676932692527,0.3714695061147213,-0.36239538829922674
1682361265417329700,8.50132958984375,0.4052010953247547,0.49767771897017954,-0.08787176019847392
1682361265437457700,8.521457763671876,0.17016016730666159,0.644476884433627,0.07936404409408569
1682361265457585700,8.541585693359375,-0.09198968037869781,0.34691900222599503,0.2992822217822075
1682361265477712600,8.561712646484375,-0.03259180805776268,-0.1747439879655838,0.4008621893376112
1682361265497840600,8.581840576171874,-0.10008534508347511,-0.7036433591514826,0.4490022431284189
1682361265517968600,8.60196875,-0.2877694786429405,-0.8293956449329852,0.340068990200758
1682361265538095400,8.622095458984376,-0.41480950268004085,-0.954114496013522,0.3676519936531782
1682361265558223400,8.642223388671875,-0.20204236579034476,-0.9573246902316808,0.46358314166665077
1682361265578350300,8.662350341796875,0.013362097332999109,-1.2294149537056684,0.6789438021808862
1682361265598478300,8.682478271484374,0.12067922030091285,-1.4253876076608896,0.9210627057611942
1682361265618606300,8.7026064453125,0.03140643419809639,-1.3981564863860607,0.8451374039441346
1682361265638733300,8.7227333984375,-0.3091886987686157,-1.465508605647087,0.9120803578823804
1682361265658861300,8.742861328125,-0.14612820739932358,-1.6401140619248151,0.725716659271717
1682361265678989300,8.7629892578125,0.15956625604536384,-1.5746961255967615,0.11732874082922935
1682361265699116500,8.783116455078124,0.2013560274939984,-1.4498223762154578,-0.269081144785881
1682361265719244500,8.80324462890625,-0.02237089482732117,-1.2668354605615137,-0.5987813011854887
1682361265739372500,8.82337255859375,-0.3823521711895242,-1.1079220789343118,-0.8325093930393457
1682361265759499300,8.843499267578125,-0.6834311767280101,-1.187014904871583,-1.1093810455709696
1682361265779627300,8.863627197265625,-0.31644151944108306,-1.3536667717963455,-1.382273273077607
1682361265799755300,8.88375537109375,-0.04090367279648781,-1.2232318811565637,-1.1265279952049254
1682361265819882500,8.903882568359375,-0.19901560184769332,-0.8581465231209993,-0.7328431501507758
1682361265840010500,8.924010498046876,-0.6589221738934516,-0.6374667134106159,-0.5620049374520778
1682361265860138500,8.944138427734375,-0.5980441460173577,-0.6015028351038694,-0.602391308376193
1682361265880265500,8.964265380859375,-0.2591770058870315,-0.7348655958890914,-0.15751812787652014
1682361265900393500,8.9843935546875,0.010286416214704512,-0.574804213270545,0.33886604415178295
1682361265920521500,9.004521484375,-0.15102635470442474,-0.4160819703012705,0.42607729461491106
1682361265940649500,9.0246494140625,-0.5844962803212925,-0.5756494319230318,-0.11610475199222564
1682361265960776400,9.0447763671875,-0.41154666495919223,-0.6098638362139464,-0.29556700065135955
1682361265980904400,9.064904541015625,0.24077976393103598,-0.4150561343848705,0.08866495640277862
1682361266001032400,9.085032470703124,-0.2389922959923744,-1.1955857493400572,-0.5447521893560886
1682361266021159400,9.105159423828125,-0.08963643178343772,-0.9612515082865953,-0.48512394234538075
1682361266041287400,9.125287353515626,0.03029576954245567,-0.6693757633686065,-0.4263929364353418
1682361266061415400,9.14541552734375,0.5180348628222942,-0.4160720334291458,-0.26121464919447895
1682361266081542400,9.16554248046875,0.7780851444125175,-0.2828010425806045,-0.4129319818377495
1682361266101670400,9.18567041015625,0.6362216817855835,-0.2614595638662576,-0.922495368912816
1682361266121798400,9.20579833984375,0.12249238893641158,-0.46777299457192417,-1.1429068830758333
1682361266141925400,9.22592529296875,0.041581754721142346,-0.43503918422758575,-1.126124090579152
1682361266162053400,9.246053466796875,0.05474982731938362,-0.308171630680561,-0.9436842874139547
1682361266182181400,9.266181396484376,-0.08646835967395454,0.19412088860869406,-0.27026187900304793
1682361266202308400,9.286308349609374,0.08582414348628371,0.35950142042338845,-0.05499357294738293
1682361266222436400,9.306436279296875,0.04584522085189819,0.2786544442951679,-0.5669552533358335
1682361266242564400,9.326564453125,0.05048866274356842,0.04163724776804447,-0.09871697933971882
1682361266262691600,9.346691650390625,0.5902163384685293,0.15261106661260126,0.45506548869013785
1682361266282819600,9.366819580078126,0.7569850732386112,0.19393091899454593,0.37370588686466216
1682361266302947300,9.386947265625,0.5516576944282278,0.37291619779169555,-0.1454156021505594
1682361266323074300,9.40707421875,0.1715664904406294,0.44878597002923487,-0.6266238323569298
1682361266343202300,9.427202392578126,-0.06987955537941307,0.4305196609765291,-0.7140320666968822
1682361266363330300,9.447330322265625,0.027273754840157923,0.4133265341132879,-0.7442021640330553
1682361266383457500,9.46745751953125,0.1757832496191375,0.6013362463653087,-0.6948626713246107
1682361266403585500,9.48758544921875,0.2858533976222388,0.7435609435200691,-0.8501637076735497
1682361266423713500,9.507713623046875,0.2232359422002919,0.6633458355545997,-1.1936983281582594
1682361266443840500,9.527840576171876,-0.18579028263688085,0.6373182448506355,-1.437613467505574
1682361266463968500,9.547968505859375,-0.3675520404100418,0.6398509781986474,-1.3706295970350504
1682361266484096300,9.56809619140625,-0.12599954767399466,0.7225029579222202,-0.9105798901915549
1682361266504224300,9.588224365234375,0.10718144082427024,0.6842699656397104,-0.5694061536192894
1682361266524351500,9.6083515625,0.08195932128429412,0.5425760143607854,-0.45547816114425654
1682361266544479500,9.6284794921875,-0.34572482400536536,0.5775099650979042,-0.668626990827918
1682361266564607700,9.648607666015625,-0.6374854181110858,0.6041413669139146,-0.4498913009226322
1682361266584734500,9.668734375,-0.43979953049719334,0.8268155653119087,0.09794891757667064
1682361266604862500,9.688862548828125,-0.33869711732566354,0.5532388626724482,0.5758645359784365
1682361266624990500,9.708990478515625,-0.2945604539573192,0.06928747123777866,0.3728384563803673
1682361266645117400,9.729117431640624,-0.39120471867620943,-0.2983656914591789,0.2314630695313215
1682361266665245400,9.749245361328125,-0.1285235040605068,-0.1282230598092079,0.5192863241881132
1682361266685373400,9.76937353515625,0.19431027370095252,0.20478607500791549,0.7938684044778347
1682361266705500700,9.789500732421875,0.18114917883276938,0.08167758173346519,0.9824456874847411
1682361266725628700,9.809628662109375,-0.011845911483233794,-0.0482324082493782,0.6036328328698873
1682361266745756700,9.829756591796874,-0.3203396228581667,-0.07431026783585548,0.18978724331855773
1682361266765884700,9.849884765625,-0.12408758570598438,0.213996386423707,0.45002515643537044
1682361266786011400,9.870011474609376,0.024432996722590177,0.5195078579843044,0.7324597037911414
1682361266806139400,9.890139404296875,-0.1456190340344794,0.628382074201107,1.0895295131534337
1682361266826267400,9.910267333984375,-0.3338625367760658,0.5312941573679447,1.0340578013002872
1682361266846394600,9.93039453125,-0.6214198339730501,0.27120062115788457,0.723221335324645
1682361266866522600,9.950522705078125,-0.3315747180998325,0.368165203872323,0.775046215108037
1682361266886650600,9.970650634765626,-0.23122516912221908,0.4681973574638366,1.0563719244390726
1682361266906777600,9.990777587890625,-0.3480062129408121,0.27980712146162984,1.3472072203934191
1682361266926905600,10.010905517578125,-0.35251868539657444,0.019015081593394278,1.2563900543928146
1682361266947033300,10.031033447265624,-0.1701630533834919,-0.09995791931152344,0.9357382968455552
1682361266967160600,10.05116064453125,-0.044565702435374256,-0.057255088138580316,0.9019920945882797
1682361266987288600,10.07128857421875,0.19204879504237324,-0.03196691762506962,1.2844640562325715
1682361267007416600,10.09141650390625,0.41463940681014205,-0.01996317609846592,1.3980781604528427
1682361267027544600,10.111544677734376,0.3363233008664101,-0.0283861365288496,1.6614093634098768
1682361267047671600,10.131671630859374,0.24591595777571199,0.05302256513535976,1.3601292458087204
1682361267067799600,10.151799560546875,0.09083356914613396,0.2247100881397724,0.9948784680783748
1682361267087927600,10.171927490234374,-0.14564520965535194,0.2589081258177757,0.9484925644785165
1682361267108054500,10.192054443359375,0.023752704574540255,0.4048819463729858,1.0032663571953773
1682361267128182500,10.2121826171875,0.2199579982418567,0.3948439519613981,0.7507604996353388
1682361267148310500,10.232310546875,0.10489365868065506,0.2532183897435665,0.6408674617648125
1682361267168437500,10.2524375,-0.043546953846886755,0.22820552904009817,0.4689952298432588
1682361267188565500,10.2725654296875,-0.19326335846390574,0.2353670912325382,0.26788696656525135
1682361267208693500,10.292693603515625,-0.05437522185333073,0.2405921324044466,0.026236265018582342
1682361267228821500,10.312821533203126,0.034479850294068456,0.17446750911176204,-0.24267303033173082
1682361267248948500,10.332948486328124,0.12865330445263534,0.15253449424505233,-0.10676584576070308
1682361267269076500,10.353076416015625,0.24768705910146235,0.011945873859524727,-0.12269114464521408
1682361267289204500,10.37320458984375,0.025628946775197982,0.05322305614352226,-0.08789514107406139
1682361267309331500,10.39333154296875,-0.1985334443539381,-0.23708617011010646,-0.22792378948926925
1682361267329459500,10.41345947265625,0.12581249153614044,-0.5104746567010879,-0.3234457721799612
1682361267349587500,10.43358740234375,0.3859603152167052,-0.6101069973200559,-0.0445768083512783
1682361267369714400,10.45371435546875,0.44883032062761485,-0.6311661519616842,0.04955518128573894
1682361267389842400,10.473842529296874,0.43444582144431765,-0.22626374732255936,0.057815060108900064
1682361267409970400,10.493970458984375,0.12133965697102247,0.08339081539213657,0.07416413736343383
1682361267430098400,10.514098388671876,-0.09742167883217334,-0.06185059923529625,-0.023914544072747228
1682361267450225700,10.5342255859375,-0.0604278729557991,-0.3466986374735832,0.09658990418314933
1682361267470353700,10.554353759765625,-0.07142331422269343,-0.6132295132547616,-0.013238251757621765
1682361267490481700,10.574481689453124,-0.1117103164255619,-0.5436579643785954,-0.2738882528066635
1682361267510608400,10.5946083984375,-0.25067864213287827,-0.41001346404254435,-0.45441023965179916
1682361267530736400,10.614736328125,-0.3312637159219011,-0.3089215722650289,-0.5385761310696602
1682361267550864400,10.634864501953125,-0.0429518374979496,-0.2513198626458645,-0.3860007202923298
1682361267570992400,10.654992431640625,0.2810556602180004,-0.27995442097783085,-0.13916180245280266
1682361267591119600,10.67511962890625,0.3292471519351005,-0.056011225557327265,-0.27107553347349167
1682361267611247600,10.69524755859375,-0.07918163673188537,0.17814415179789064,-0.4478367064803839
1682361267631375600,10.715375732421874,-0.2240816540431231,0.17799568323791026,-0.41439211751818655
1682361267651502300,10.73550244140625,0.05140815220866352,0.304863236784935,-0.36449089927375317
1682361267671630300,10.75563037109375,0.09600245968401432,0.36677813342809673,-0.16833061379194258
1682361267691758300,10.77575830078125,0.02281213578879833,0.4392898274093866,-0.12612228813767432
1682361267711886300,10.79588623046875,-0.2453711833745241,0.5271498971700668,-0.3813461724847555
1682361267732013600,10.816013671875,-0.6324433322906494,0.4650491225659847,-0.38926352148056026
1682361267752141600,10.8361416015625,-0.3576735839417204,0.34859891813695426,-0.3947656260281801
1682361267772269600,10.85626953125,-0.026921288140676913,0.2278080541551113,-0.26905834843218324
1682361267792396500,10.876396484375,0.23730890948269515,0.39147769039869307,-0.30224633228480813
1682361267812524500,10.896524658203125,0.05490591293023899,0.45120998230576514,-0.3507119647681713
1682361267832652300,10.91665234375,-0.0350742359906435,0.6202455294966698,-0.35972295421957967
1682361267852780300,10.9367802734375,0.5259644502451643,1.1732213573187589,0.0070125091105699535
1682361267872907500,10.956907470703126,0.9728992759823799,1.890592213049531,0.16669044536948202
1682361267893035500,10.977035400390625,1.0919009184598922,1.5514146187305449,0.5675327609628439
1682361267913163500,10.99716357421875,0.7962380562186241,1.0199468583613633,0.4703559968024492
1682361267933290500,11.01729052734375,0.5397194558858871,0.9974071097731589,0.44804538079500195
1682361267953418500,11.03741845703125,0.38346389529109,1.5290285993993282,0.5337351207792759
1682361267973546500,11.05754638671875,-0.06091653325557708,1.6849200028568505,0.34038229393362995
1682361267993674500,11.077674560546875,-0.3660322834968567,1.567916256198287,0.04017886565327644
1682361268013801200,11.09780126953125,-0.5772013375401497,1.0691589252978562,-0.12287468451857567
1682361268033929500,11.117929443359374,-0.38055535090062764,0.6388046840161085,0.2343745730638504
1682361268054057500,11.138057373046875,-0.07408581143021584,0.19307167181670665,0.5787853918612003
1682361268074184400,11.158184326171876,-0.11546645408868789,0.11611878051757812,0.4674298802226782
1682361268094312400,11.1783125,-0.0589595905015245,0.02272328846156597,0.2087888809084892
1682361268114440400,11.1984404296875,0.045263037049770354,-0.18591537032127378,0.16496785936057567
1682361268134568400,11.218568359375,0.3524105853796005,-0.2847019077658653,0.40363457666039465
1682361268154695400,11.2386953125,0.7113000113844871,-0.422974067902565,0.6253764626443385
1682361268174823400,11.258823486328126,0.4916647057583555,-0.37727030134797096,0.8844359796315431
1682361268194951400,11.278951416015625,-0.14688216757178305,-0.38754385808110237,0.7267483404070139
1682361268215079400,11.299079345703126,-0.3934661608021706,-0.22966098854541778,0.9650275196939706
1682361268235206400,11.319206298828124,-0.4611012617230415,-0.2877566191613674,1.0538865373641253
1682361268255334400,11.33933447265625,-0.36884726785235106,-0.42240006740689273,1.049183474239707
1682361268275462400,11.35946240234375,-0.3634218087375164,-0.7207616672128438,1.0523995136767625
1682361268295589400,11.37958935546875,-0.1621300055861473,-0.8853975181400775,0.7229711599558591
1682361268315717400,11.39971728515625,0.15135259098410606,-0.9108908558368682,0.505977929803729
1682361268335845400,11.419845458984375,0.34813886287715284,-0.932629809436202,0.20976269437670705
1682361268355973400,11.439973388671875,0.5556359869420529,-0.7686521301567554,0.09546996024250984
1682361268376100600,11.4601005859375,0.7569768899321556,-0.6022896015673875,0.12269698986411094
1682361268396228600,11.480228515625,0.5853250227630138,-0.7075409511119127,0.02118482684791088
1682361268416356400,11.5003564453125,0.2814752738695592,-0.6529542053997516,-0.0024567455023527143
1682361268436484400,11.520484375,-0.0559223782300949,-0.6053764616668224,0.0728372726738453
1682361268456611300,11.540611328125,-0.11105565190911293,-0.499030887144804,0.005737666869163513
1682361268476739300,11.5607392578125,-0.02570022191312164,-0.4160819703012705,0.08648761236369609
1682361268496867300,11.580867431640625,-0.03621697628498077,-0.6626958472132682,0.027555530923604965
1682361268516994600,11.60099462890625,-0.09086392775177955,-0.6375462083876132,-0.219856218367815
1682361268537122300,11.621122314453125,-0.09134557378888129,-0.6903454861611128,-0.13968085789084433
1682361268557250300,11.641250244140625,0.014269330104719846,-0.8204495374113321,0.06085282036960125
1682361268577378300,11.66137841796875,0.13547697646021842,-0.8291828789651393,0.1251648412823677
1682361268597505300,11.68150537109375,0.18453003517640754,-0.8251596147984266,0.05537760382890701
1682361268617633300,11.70163330078125,0.04440963509082794,-0.8247674006104468,-0.15448679735660553
1682361268637761300,11.72176123046875,-0.11467851858139037,-0.57600715931952,-0.35874504909813404
1682361268657889300,11.74188916015625,-0.0885352290758863,-0.3581254558950662,-0.17492460522949693
1682361268678016300,11.762016357421874,-0.04645663074851036,-0.4406722216784954,-0.07534779419004917
1682361268698144300,11.782144287109375,0.06884615721106528,-0.553647443473339,-0.2483306177020073
1682361268718272300,11.802272216796876,0.0334557131444104,-0.5181850849479437,-0.2648825240522623
1682361268738400300,11.822400146484375,0.028320085555315015,-0.3296516410827637,-0.3643833472460508
1682361268758527200,11.84252734375,0.000962123030424118,-0.25362054080367086,-0.43073067337870596
1682361268778655200,11.8626552734375,-0.08102876243591309,-0.41330607584714885,-0.3082300828695297
1682361268798783200,11.882783203125,0.1704302164196968,-0.3733236095488071,-0.45815760948657985
1682361268818910500,11.902910400390626,0.2934346647977829,-0.3428957380592823,-0.430898431161046
1682361268839038500,11.92303857421875,0.25681319936513897,-0.15841595349907875,-0.6560264524519444
1682361268859166500,11.94316650390625,0.205016376632452,0.029437691408395767,-0.4924018243938684
1682361268879294200,11.963294189453125,0.13943185156583784,-0.08243044592738151,-0.4646785356879234
1682361268899421200,11.983421142578125,0.2451145782649517,-0.07500935601592064,-0.4311988754123449
1682361268919549200,12.003549072265624,0.2560024675041437,-0.002730301746726036,-0.44605625280439853
1682361268939677200,12.02367724609375,0.2448229018419981,-0.13094108659625053,-0.6135726276040077
1682361268959805200,12.04380517578125,0.10515491256588139,-0.013435820156335829,-0.6672276454240084
1682361268979932400,12.063932373046875,0.15985212378203867,0.295903685259819,-0.6959551427364349
1682361269000060400,12.084060302734375,0.06079787531197071,0.4903279407292604,-0.8650771991670131
1682361269020188400,12.1041884765625,-0.19646014521121977,0.8351555236339568,-1.0020587349712848
1682361269040316400,12.12431640625,-0.5181552743315696,0.8875508967816829,-1.0533113678246735
1682361269060443100,12.144443115234376,-0.6672720690876245,1.0565274072617292,-1.0549597195535898
1682361269080571100,12.164571044921875,-0.9193675922811031,1.2004396191120148,-0.9178478353679179
1682361269100699100,12.18469921875,-0.8603338040322065,1.360348441517353,-0.8071095788449049
1682361269120827100,12.2048271484375,-0.6193073718637228,1.5546937865316868,-0.6160106684058905
1682361269140954400,12.224954345703125,-0.4112830455869436,1.613662692850828,-0.36703123140633104
1682361269161082400,12.245082275390626,-0.18221238761749117,1.4292314236074686,-0.2260083112567663
1682361269181210400,12.26521044921875,0.09940956471376121,1.08711193061769,-0.04487783712446689
1682361269201338400,12.28533837890625,0.242390633193776,0.5687438903182744,0.07843523881137371
1682361269221465300,12.30546533203125,0.2933306199014187,0.3737093939960003,0.27917116164565087
1682361269241593300,12.32559326171875,0.2586399033356458,0.4786123684942722,0.36099253576397894
1682361269261721300,12.345721435546874,0.07999766582250595,0.2999287029922008,0.16215397098362444
1682361269281848300,12.365848388671875,0.07739953908808529,0.0847661953985691,0.3391881157130003
1682361269301976300,12.385976318359376,0.314317366893962,-0.06309387729465961,0.7224696401745081
1682361269322104300,12.406104248046875,0.3421094830524176,0.10879705932736396,0.42457916501164433
1682361269342232300,12.426232421875,0.08855046317763626,0.1744166557073593,0.06819850695729256
1682361269362359300,12.446359375,0.24498664103634654,0.06574819119572639,0.13879472270607948
1682361269382487300,12.4664873046875,0.3165869923263788,-0.1500432619512081,0.6989531555086373
1682361269402615300,12.486615234375,0.1710492251008749,-0.1583008026868105,0.9029793520599603
1682361269422743300,12.506743408203125,-0.1072830745678395,0.0655079526990652,1.0343775347739457
1682361269442871300,12.526871337890626,-0.6655441493164748,0.2556920863807201,1.1330670415848494
1682361269462998300,12.546998291015624,-0.9642745824348181,0.26444413263499733,1.2441688707232474
1682361269483126300,12.567126220703125,-0.6393705742705613,0.27271044119894505,1.5595195992529391
1682361269503254300,12.587254150390624,-0.10901632810123264,0.17434592855870723,1.6939689862310885
1682361269523381200,12.60738134765625,0.025378113819286226,0.0924438904196024,1.5642723467379807
1682361269543509200,12.62750927734375,-0.3808674490571022,0.0064162967830896376,1.3169184651136399
1682361269563637200,12.64763720703125,-0.486319362675026,-0.11039631121754645,1.1376339111089706
1682361269583765200,12.66776513671875,-0.07947853731922805,-0.21720131994485853,1.1505302175611256
1682361269603892000,12.68789208984375,0.3107278179693967,-0.3710591717481613,1.1729296808958052
1682361269624020200,12.708020263671875,0.5596447111267596,-0.2999643588274717,1.0805407355338335
1682361269644148200,12.728148193359376,0.3450595650296658,-0.18760931475758552,0.9442150332897901
1682361269664276200,12.748276123046875,0.09911671924702822,-0.21591595630943775,0.8852204080075025
1682361269684403200,12.7684033203125,0.23226795617341994,-0.20125790088176726,0.911801540941
1682361269704531200,12.78853125,0.16534670261032877,-0.16878654086589812,0.7907453040212392
1682361269724659200,12.8086591796875,-0.029987799571827053,-0.042835517641901966,0.5016495452105999
1682361269744787200,12.828787109375,-0.2306744764368981,0.04693886130750179,0.09475041379630565
1682361269764915200,12.848915283203125,-0.38335108256638045,0.055526072388887404,0.07680500726103782
1682361269785042200,12.869042236328125,-0.1563520067065954,0.14615034616589545,0.09036357701420783
1682361269805170200,12.889170166015624,-0.002696399477124214,0.2810854708343744,0.13022855441272257
1682361269825298200,12.909298095703125,-0.20032675751149653,0.08608546130359172,0.13394085293412208
1682361269845426200,12.92942626953125,-0.3669295976627618,-0.10150222614407539,-0.11897066281735896
1682361269865553200,12.94955322265625,-0.3972842577856034,-0.2926636804252863,-0.05041325941979885
1682361269885681200,12.96968115234375,-0.05994505787491798,-0.1533428880184889,0.23135376393795012
1682361269905809200,12.98980908203125,0.3287555690258741,0.2727846754789352,0.19791385115087032
1682361269925937200,13.009937255859375,0.2583160051435232,0.6158721367180348,0.2787725177168846
1682361269946064100,13.030064208984374,-0.19407471137940882,0.6751607765108346,0.24244565131664275
1682361269966192000,13.050192138671875,-0.46423722166121,0.5207148956865072,0.23303075723946093
1682361269986320400,13.0703203125,-0.43231107443794603,0.2616828512281179,0.3643278176665306
1682361270006448400,13.090448486328125,-0.09345555168017744,0.20409575465619562,0.38111703990399837
1682361270026575000,13.1105751953125,0.13774148732610045,0.265811913856864,0.6733972739696502
1682361270046703000,13.130703125,0.16158040887936947,0.3206938431233167,0.5134001887589693
1682361270066831000,13.1508310546875,-0.11083996333181857,0.38691198991835113,0.37269407947361466
1682361270086959000,13.170958984375,-0.2132246713988483,0.5430114831686019,0.5148901350557804
1682361270107086000,13.191086181640625,-0.20766426079273223,0.6872936973750591,0.642222383505106
1682361270127214000,13.211214111328125,-0.19373320446535944,0.5607546451300383,0.37066461947262286
1682361270147342000,13.231342041015624,-0.24974793715402482,0.22225743429064748,0.17969781098067758
1682361270167470300,13.25147021484375,-0.08434351300708949,-0.23560499164164064,0.08542495156824588
1682361270187597300,13.271597412109376,0.19908355251736937,-0.22716098842322824,0.20402444298565386
1682361270207725300,13.291725341796875,0.27930326359272,-0.0975321534693241,0.5447147799551487
1682361270227853300,13.311853271484376,0.25556122654266655,-0.025344284614920616,0.45225510744452474
1682361270247981000,13.33198095703125,0.0516962849676609,0.06961421897411346,0.22630349481105802
1682361270268109000,13.352109130859375,0.0098387455124408,-0.08055822231471538,0.28155425738990303
1682361270288236000,13.372236083984374,0.19964118640013037,-0.08337327973544598,-0.02732172216773033
1682361270308364000,13.392364013671875,0.18913608593344688,0.13123276301920414,-0.015244330883026121
1682361270328492300,13.4124921875,-0.01923201227970421,0.25654957999289035,0.034680268236994743
1682361270348620300,13.432620361328125,-0.3735988462936133,0.2470657123327255,-0.3599643617600202
1682361270368747300,13.452747314453125,-0.4217394846063107,0.2191553766220808,-0.3801677763551473
1682361270388875300,13.472875244140624,0.08680508081503212,0.16781389644145964,-0.1633247683286667
1682361270409003300,13.493003173828125,0.2956897502481937,0.3043009267270565,-0.2346627423554659
1682361270429131300,13.51313134765625,0.16871058955285698,0.6107359428733586,-0.2916162171989679
1682361270449258000,13.533258056640625,0.08216215038001537,0.8366384556680917,-0.6095850192725658
1682361270469386000,13.553385986328125,0.02892977841887623,0.9687304658651351,-0.8246101642221212
1682361270489514200,13.57351416015625,0.12911098509225993,1.3977993435114622,-0.8051344793796539
1682361270509642200,13.593642333984375,0.31457744260225445,1.8729495888531207,-0.6336597223430872
1682361270529769500,13.61376953125,-0.008807575833797454,2.013624718478322,-0.6675035397559403
1682361270549897500,13.6338974609375,-0.500301053211093,1.5765800396472214,-0.7960019093751907
1682361270570025500,13.654025390625,-0.6914344504415989,0.799589704734087,-1.2239011587202548
1682361270590153500,13.674153564453125,-0.13519580316497012,0.5776058266878128,-1.5056687665998936
1682361270610281500,13.694281494140625,0.0760521430671215,0.6077788466334343,-0.929830534106493
1682361270630408200,13.714408203125,0.14768533718083052,0.6030062254041433,-0.5069155029147863
1682361270650536200,13.7345361328125,0.10242226359844207,0.2874883236140013,-0.24538345833420752
1682361270670664200,13.754664306640626,0.12796002495884895,0.22256956897974012,0.1430330909281969
1682361270690792400,13.77479248046875,0.2751343804102391,0.20981413230299947,0.6571721153557301
1682361270710919400,13.79491943359375,0.367835606591776,0.2769680986434221,1.1682570129096508
1682361270731047400,13.81504736328125,0.4770657601067796,0.3770154498040676,1.2205226221978664
1682361270751175400,13.835175537109375,0.2161269687116146,0.3531307163476944,1.2742068661123513
1682361270771303400,13.855303466796874,-0.044637598627805704,0.39552024378776546,1.3647843781381845
1682361270791431400,13.875431396484375,-0.139006319630146,0.44785365761518475,1.3009604330033062
1682361270811558400,13.895558349609376,-0.275955706730485,0.32095512440800666,1.1278495991975068
1682361270831686400,13.915686279296875,-0.30263681117342783,0.030126842716336248,1.0152537321090698
1682361270851814400,13.935814453125,-0.009725275200605392,-0.26509821262955663,0.9519137710988521
1682361270871942400,13.9559423828125,0.34872751295268534,-0.2221884607076645,1.0910270582348107
1682361270892069400,13.9760693359375,0.46450610173046586,-0.13189853345155717,1.003259342932701
1682361270912197400,13.996197265625,0.4859890347421169,-0.06480827999711036,0.9482441426753997
1682361270932325400,14.016325439453125,0.4193172989606857,-0.15588848084807394,0.679984835666418
1682361270952453400,14.036453369140625,0.2704448708871379,-0.39650107151865954,0.6162976686537266
1682361270972580400,14.056580322265624,0.39991643292009826,-0.5244710333496332,0.8556009302914143
1682361270992708400,14.076708251953125,0.4539040436953306,-0.5439958180308342,1.065681020054221
1682361271012836400,14.09683642578125,0.5010317055732012,-0.5880272674590349,1.1254419535338878
1682361271032964400,14.11696435546875,0.3079167791366577,-0.6646756228536367,0.8285399048864841
1682361271053092400,14.13709228515625,0.06923659956706688,-0.6585732143253088,0.6916571532815694
1682361271073219300,14.15721923828125,0.13662206397526896,-0.833738058051467,0.5675906286299228
1682361271093347300,14.177347412109375,0.4345733202815056,-0.5114940628767013,0.44353637893795966
1682361271113475300,14.197475341796874,0.37320202899575233,-0.34899347041249273,0.4269365417927503
1682361271133603300,14.217603271484375,0.019187524684006346,-0.5760802245557308,0.2906482489496469
1682361271153730300,14.237730224609376,-0.06202946293354034,-0.7183329787611961,0.06660334672033787
1682361271173858300,14.2578583984375,-0.2130196503460407,-0.7394160988003015,-0.20107143839895725
1682361271193986300,14.277986328125,-0.20774083316028116,-0.6797749923080205,0.23033844941556453
1682361271214114300,14.2981142578125,0.08123568318486213,-0.49436523342132566,0.3735983348369598
1682361271234242600,14.31824267578125,0.025150807869434355,-0.5394914923489094,0.1608271062940359
1682361271254369500,14.33836962890625,-0.28584523258209227,-0.7284884620726109,-0.026489362996816635
1682361271274497500,14.35849755859375,-0.3399193525969982,-0.8430828095018863,-0.3056646162956953
1682361271294625300,14.378625244140625,-0.057915607007080684,-0.8810749787658453,0.06965455098450184
1682361271314753300,14.398753173828124,0.32619711671471596,-0.7495096227914094,0.16988018132150173
1682361271334881300,14.41888134765625,0.29872517242133617,-0.49850832457542416,-0.22530922307670115
1682361271355008300,14.43900830078125,-0.16278874348951503,-0.39913258906602855,-0.5257733481198549
1682361271375136300,14.45913623046875,-0.31086744563579555,-0.3835679401874542,-0.620381138575077
1682361271395264500,14.479264404296876,-0.13723932822393253,-0.31054069789946076,-0.4546148223131895
1682361271415392500,14.499392578125,-0.05637244181884452,-0.32540976572930813,-0.2774152578890324
1682361271435519500,14.51951953125,-0.05751227777004242,-0.2835913161754608,-0.26777649192810055
1682361271455647500,14.5396474609375,-0.08680500774979591,-0.24936054527163504,-0.3696773620009422
1682361271475775500,14.559775390625,-0.14936583761367947,-0.20361644670665263,-0.48860126306712626
1682361271495903500,14.579903564453126,0.04042907755468041,-0.17441782475113868,-0.526959343034029
1682361271516031500,14.600031494140625,0.3203571585148573,-0.16516542775928972,-0.4886877723067999
1682361271536158500,14.620158447265625,0.3216711637228727,-0.10614859064519405,-0.49027825636863703
1682361271556286500,14.640286376953124,-0.01715104128718376,-0.04986439336538315,-0.4944891520619392
1682361271576414500,14.66041455078125,-0.23953122517466544,0.16400865893959998,-0.5683855783998966
1682361271596542700,14.680542724609374,-0.16438392199277876,0.2429191140472889,-0.44388007780909533
1682361271616670700,14.700670654296875,0.05019694978799671,0.39074586899280545,-0.1579950977385044
1682361271636797700,14.720797607421876,-0.11223992979023605,0.37301439746916293,-0.12285305720865726
1682361271656925700,14.74092578125,-0.16632804179787636,0.1698375112235546,-0.33570494977235793
1682361271677053700,14.7610537109375,0.04646481405496597,-0.01241407589316368,-0.5087491480827331
1682361271697181700,14.781181640625,0.31149989832043645,-0.0009317278921604156,-0.49016485912203783
1682361271717308700,14.80130859375,0.3560070755016059,0.14183832818567751,-0.44675709455013274
1682361271737436400,14.8214365234375,0.40581842350549996,-0.005230886390805244,-0.47601007704138754
1682361271757564700,14.841564697265625,0.47395197546780105,0.006932429611682891,-0.5484259094327688
1682361271777692700,14.861692626953126,0.41277006927430626,0.11402853024005889,-0.45738720963597296
1682361271797820700,14.881820556640625,0.4193874415874481,0.3126478993117809,-0.5476192692250013
1682361271817947600,14.90194775390625,0.2462432900339365,0.776191293489933,-0.577075665333867
1682361271838075600,14.92207568359375,0.027127733965590595,1.026038745495677,-0.6423854651123285
1682361271858203600,14.94220361328125,-0.14028298850245774,0.9971779771924019,-0.5334095420867204
1682361271878331600,14.96233154296875,-0.12822532483153046,1.0446592748135328,-0.09414017294347286
1682361271898459600,14.982459716796875,-0.3119504916321486,1.0231126289159058,0.011491115829348563
1682361271918586600,15.002586669921875,-0.5424275458008051,1.0049556254565715,0.021239771905541417
1682361271938714600,15.022714599609374,-0.5337093287508935,1.0150520720571279,0.20000877760350702
1682361271958843000,15.0428427734375,-0.31605332384109497,0.9349614672541617,0.24020751700103282
1682361271978971000,15.062970947265624,-0.3918908743094653,0.7213251463145017,0.31721243074834343
1682361271999098600,15.0830986328125,-0.5679997939527034,0.5264624994277953,0.23638474384248256
1682361272019225600,15.1032255859375,-0.7279448567152023,0.314136092042923,0.2172124258607626
1682361272039353600,15.123353515625,-0.742674735270068,0.01710369501411915,0.14690964010059832
1682361272059481600,15.143481689453125,-0.6605914953451604,-0.016467150676250458,0.33289749113619327
1682361272079609600,15.163609619140624,-0.6423498092770576,0.08134615782201289,0.4771259293287992
1682361272099737600,15.183737548828125,-0.6285967398650943,0.09140110336840153,0.29088965649008747
1682361272119864600,15.203864501953126,-0.6587297931265086,0.22373919728100297,-0.014275193589925765
1682361272139992800,15.223992919921875,-0.6406677014090121,0.16763035656809805,0.02636485983431339
1682361272160120800,15.244120849609375,-0.4717570227067917,0.06028057343959808,0.022343933755159376
1682361272180248800,15.264248779296874,-0.4559977280389517,-0.12063304307162762,0.1377396606951952
1682361272200376800,15.284376953125,-0.4162563039548695,-0.008439911565184593,0.029944471886754035
1682361272220503600,15.304503662109376,-0.4432399532746523,0.16926409524977207,0.026904958060383795
1682361272240631600,15.324631591796875,-0.5692525704927742,0.22949206171929834,0.33721067816019057
1682361272260759600,15.344759521484375,-0.8766244290977716,0.16014496924877167,0.3641583063185215
1682361272280887600,15.364887451171874,-1.0419739812523126,-0.08993336890339851,0.4204027561098337
1682361272301014800,15.385014892578125,-0.27122502494677897,-0.02453179918825626,0.5987035597741603
1682361272321142800,15.405142822265624,0.5494599286556243,0.1257049395084381,1.086423948353529
1682361272341270800,15.425270751953125,0.8207536349244415,0.0927618703275919,1.5009557666033506
1682361272361398800,15.445398681640626,0.6123090374089777,-0.0335492183804512,1.6377952635884283
1682361272381526800,15.46552685546875,0.4554278922617435,-0.08774842607975006,1.4416764791607857
1682361272401654800,15.48565478515625,0.4006644748084247,-0.035193478456139564,1.259291036531329
1682361272421781500,15.505781494140624,0.5393735650576651,-0.10857844814062118,1.5614841773241757
1682361272441909500,15.525909423828125,0.5874865847110748,-0.009958499434590339,1.5120768800765274
1682361272462037500,15.54603759765625,0.3678841949738562,0.21889175724983215,1.261748951077461
1682361272482165500,15.56616552734375,0.06814063929021358,0.41106852605342864,1.0181810177326203
1682361272502293500,15.58629345703125,0.07394362648054957,0.5722820013165474,1.3124445345699787
1682361272522420500,15.60642041015625,0.1755081042058766,0.5541413644701242,1.5675520990610121
1682361272542548500,15.626548583984375,0.18755977652743458,0.5751654477983713,1.1573667855829
1682361272562676500,15.646676513671874,-0.060642246358841655,0.4709650686115026,0.8316998302221298
1682361272582804200,15.66680419921875,-0.1000980584345758,0.3073854487389326,0.586740150257945
1682361272602932200,15.68693212890625,0.04150704551711678,0.24963293247222898,0.5504372492551803
1682361272623059200,15.70705908203125,0.036978608307242394,0.13513561567664145,0.8110767289102077
1682361272643187200,15.727187255859375,0.11522606946155428,0.1717284395366907,0.8168471290051936
1682361272663315200,15.747315185546874,0.4000882823556661,0.30615035398602486,0.7024380750149488
1682361272683443200,15.767443115234375,0.33272987948432564,0.16162965484857558,0.2367915710777044
1682361272703570400,15.7875703125,0.36851723218038673,0.03564765196442604,0.059496145063638685
1682361272723698400,15.807698486328125,0.3027123423613608,0.0970487538665533,0.08465221363008021
1682361272743826400,15.827826416015625,0.2294061370015144,0.16724398759901524,0.17864450253546238
1682361272763954400,15.847954345703124,-0.06046119070351123,0.34519057099819184,0.1833136633902788
1682361272784082400,15.86808251953125,-0.450025010304898,0.449171754476428,0.22879180449545383
1682361272804210400,15.88821044921875,-0.4290566026866436,0.4014765218436718,0.3544213406801224
1682361272824337200,15.908337158203125,0.024934096378833055,0.6532283461660147,0.49688861441910265
1682361272844465200,15.928465087890626,-0.13363149472400546,0.47112990378439423,0.479672106680274
1682361272864593200,15.94859326171875,-0.42986791906952854,0.3078261782437563,0.1569324369430542
1682361272884721200,15.96872119140625,-0.457484970922023,0.26403438279032704,-0.02237257532775402
1682361272904849400,15.988849365234374,-0.3573411736495793,0.3040788084089756,0.05203063148856163
1682361272924976400,16.008976318359377,0.013477321210503577,0.39607553958296776,-0.01664133819937706
1682361272945104400,16.0291044921875,0.1839537148594856,0.2762497212409973,-0.2789566421121359
1682361272965232400,16.049232421875,0.17999533262252806,0.05508358931839466,-0.3695201256126165
1682361272985360400,16.0693603515625,0.19203122285306454,-0.0917114844918251,-0.5141530529528856
1682361273005488400,16.08948828125,0.27894962784945965,-0.11437339815497398,-0.4875310034871101
1682361273025615000,16.109614990234373,0.48504327832460403,0.015205167916417121,-0.2830050407201051
1682361273045743000,16.1297431640625,0.671788085207343,0.05758943465948105,-0.27258301542699337
1682361273065871400,16.149871337890627,0.3878068929314613,0.10478490107655525,-0.17269173161089418
1682361273085999400,16.169999267578124,-0.06530804621279239,0.32928806846737857,-0.2249976729094982
1682361273106127400,16.19012744140625,-0.22233692926764487,0.5975134732067585,-0.25722879442870616
1682361273126254300,16.21025439453125,-0.047601562999933955,0.7594459103941917,-0.3206459123283624
1682361273146382300,16.23038232421875,0.06126680799797177,0.6957435458123683,-0.577864769884944
1682361273166510300,16.25051025390625,-0.00737082102894783,0.7405787128388881,-0.697260380116105
1682361273186638300,16.270638427734376,-0.13394611363112927,1.0903303081423044,-0.7457236745119095
1682361273206766300,16.290766357421877,-0.274674800074473,1.3983026168584822,-0.9098317021727561
1682361273226894300,16.310894287109374,-0.11916172841005027,1.4490642513245344,-0.9217986188203096
1682361273247021300,16.331021240234374,0.12874094620347024,1.2421534392476081,-0.8977122253119945
1682361273267149300,16.3511494140625,0.25336583539023994,1.2189859141498804,-0.35260406212508677
1682361273287277300,16.37127734375,0.04907397364005446,1.192281447097659,0.16483809550106523
1682361273307405300,16.3914052734375,0.10801504210419952,1.0136527266532183,0.1944669255673885
1682361273327533300,16.411533203125,0.2583756263762712,0.5428045624196529,0.20719372067153452
1682361273347660300,16.431660400390626,0.4927303256958723,0.3022083383619785,0.32227263674736023
1682361273367788300,16.451788330078124,0.8136434375930577,0.5076233589231968,0.3429442533761263
1682361273387916300,16.471916259765624,1.0298977590113878,0.5217307947307824,0.35490883193612094
1682361273408044300,16.492044189453125,1.0915904642712324,0.22032383587956428,0.39685470726191996
1682361273428172300,16.51217236328125,0.8027619780946522,0.10692249762713908,0.36334815897941586
1682361273448300300,16.53230029296875,0.2897861156949773,0.20394670157432554,0.7645037783056498
1682361273468427500,16.552427490234376,-0.11295936663858591,0.35815059033632274,1.0197288316965103
1682361273488555500,16.572555419921876,-0.42409583847410975,0.3677490242868662,1.20423433521986
1682361273508683300,16.592683349609374,-0.5220300334056839,0.3524105853796005,1.2802385474920273
1682361273528811500,16.6128115234375,-0.42668348034713416,0.3851198458045721,1.4997288551568984
1682361273548939500,16.632939453125,-0.11118187210466712,0.41251930938363074,1.7546113787204025
1682361273569066500,16.65306640625,-0.017044658303260803,0.34417467195391654,1.747391364338994
1682361273589194500,16.673194580078125,0.02552314831316471,0.15541151098608968,1.7783605030983685
1682361273609322500,16.693322509765625,0.11796583315636962,-0.08213526237308978,1.502004983395338
1682361273629450500,16.713450439453126,0.36719372849166393,-0.016156185030937194,1.4167559729158878
1682361273649578500,16.73357861328125,0.6065268007457256,0.1066430961638689,1.3271622112303971
1682361273669706500,16.75370654296875,0.5606371562302113,0.11728665525317192,1.3362556182682512
1682361273689833700,16.773833740234377,0.1845599005917087,-0.10810206280052662,1.0229232438236475
1682361273709961700,16.793961669921874,-0.34134149435460565,-0.3512830426543951,0.689425448706746
1682361273730089700,16.81408984375,-0.5528589234441519,-0.34322833101451394,0.5662421366304159
1682361273750217700,16.8342177734375,-0.3765227343836799,-0.37474224417507646,0.2796586529016495
1682361273770345500,16.854345458984376,-0.13309156089471652,-0.393266327381134,0.4077180465817451
1682361273790472400,16.874472412109377,-0.12734859679592772,-0.5556961926966906,0.38784021067917346
1682361273810600400,16.894600341796874,-0.37170331487059594,-0.8290256425768137,0.042678865775465966
1682361273830728400,16.914728515625,-0.7602350149452686,-1.0809271045029163,-0.1868868457019329
1682361273850856400,16.9348564453125,-0.5776899978399277,-1.1898293777704239,-0.24346973366737365
1682361273870984400,16.954984375,-0.16903962057782337,-1.343542852666974,-0.18981705393493176
1682361273891112400,16.975112548828125,0.07274139281762763,-1.4105875134140253,-0.15312544587552546
1682361273911239700,16.99523974609375,0.04792031009290367,-1.2375269484907387,-0.2657622294962406
1682361273931367700,17.01536767578125,0.00025430355463176965,-1.1953075169205665,-0.52693888476789
1682361273951495700,17.03549560546875,0.0315711963057518,-0.9891419702529907,-0.7327770991772413
1682361273971623700,17.055623779296877,0.14221713490281254,-0.6617810704559087,-0.5507879623889923
1682361273991751700,17.075751708984374,-0.07962357181310653,-0.46130818247199057,-0.4052952033489942
1682361274011878400,17.09587841796875,-0.4827952071368694,-0.33633155723810193,-0.4388572812110185
1682361274032006400,17.11600634765625,-0.5850456578323617,-0.19861761550605295,-0.6622527796208858
1682361274052134400,17.136134521484376,-0.7488321619212627,-0.2710737799078226,-0.6940484323322773
1682361274072262400,17.156262451171877,-0.5398159019976854,-0.3994681046307087,-0.4328782068014145
1682361274092390700,17.176390625,-0.22367201379630713,-0.5254255575954914,-0.18689385996460914
1682361274112518700,17.1965185546875,-0.2883329212119803,-0.49806934863626956,0.07278700379133224
1682361274132645600,17.216645751953124,-0.09907879838943481,-0.13539631243944167,0.09599193828999995
1682361274152773600,17.236773681640624,0.08934417083859443,0.4717278696775436,-0.1256961716800928
1682361274172901600,17.256901611328125,0.22352292418181896,0.6014695173561573,-0.07705226002037524
1682361274193029600,17.277029541015626,0.48224049586355683,0.3709983814716339,-0.08589432264566421
1682361274213157600,17.29715771484375,0.43792029262185095,0.13185644787549972,-0.03588555237352848
1682361274233285600,17.31728564453125,0.10991408065855503,0.15895663624703882,-0.12504501429498194
1682361274253412600,17.33741259765625,-0.02836852780692279,0.21534897007644174,-0.2903127333849668
1682361274273540600,17.35754052734375,-0.16502046633064746,0.3452729885846376,-0.5230307714134454
1682361274293668600,17.377668701171874,-0.09010295331664384,0.3667880703002214,-0.6714326958984136
1682361274313796600,17.397796630859375,0.16504326268434524,0.3475958785742521,-0.6828752964109182
1682361274333924600,17.417924560546876,0.2833609414856881,0.47090310929119583,-0.4498731807440519
1682361274354051600,17.438051513671876,0.14248722054846583,0.6766817024677991,-0.4102589632362127
1682361274374179600,17.4581796875,-0.13339191381447016,0.9309931481450796,-0.47046296430826184
1682361274394307600,17.4783076171875,-0.16897293028347193,0.8742337345689535,-0.5041518834203481
1682361274414435600,17.498435546875,0.41886144495196637,0.6715449241012335,-0.3203647572994232
1682361274434563600,17.5185634765625,0.7706062598992138,0.5127490313738584,-0.27892449340820313
1682361274454691600,17.538691650390625,0.6934095499068498,0.5833586911261082,-0.4964356099545955
1682361274474818600,17.558818603515626,0.4010247594881803,0.8497159639060496,-0.9746563487827777
1682361274494946600,17.578946533203126,0.40460254490971564,1.0975567522644996,-1.6335142252683639
1682361274515074600,17.599074462890623,1.0202619887251407,0.684748104545474,-2.101680603072047
1682361274535202800,17.619202880859376,1.4382120179206133,0.4954711488366127,-1.3952806386888026
1682361274555330800,17.639330810546873,1.162950723195076,0.7792191168785094,-0.47573535175323484
1682361274575458800,17.659458740234374,0.3233230956483632,0.6753349640339612,-0.30349487104117867
1682361274595585800,17.679585693359375,-0.5024392342835664,0.518576130092144,-0.024742227068543433
1682361274615713800,17.6997138671875,-0.8777993180960416,0.6485200223445892,0.48302784684896466
1682361274635841800,17.719841796875,-1.2117441993933171,0.8039496535092592,0.7491197466909885
1682361274655969800,17.7399697265625,-1.4044751680135725,0.7956611331135034,1.1095341903060674
1682361274676097800,17.760097900390626,-0.9445476262450218,0.6478922458350658,1.2487608746886252
1682361274696225800,17.780225830078123,-0.46402321358434856,0.45308805113732814,1.4345406359314918
1682361274716352800,17.800352783203124,-0.12011691024303435,0.5831061776697636,1.3975368931829928
1682361274736480800,17.820480712890625,-0.16519925696365534,0.30357962671518324,1.2473802339851856
1682361274756608800,17.84060888671875,-0.16219715253822506,0.2324222699522972,0.8464812197685241
1682361274776736800,17.86073681640625,-0.47773500113785267,0.10999006850421428,0.6180588331073522
1682361274796864800,17.88086474609375,-0.7446866596143692,0.13679273523390292,0.5533224493026733
1682361274816992800,17.90099267578125,-0.9144623576480895,0.18809037627279757,0.911667100906372
1682361274837119700,17.92111962890625,-0.8376157032024115,0.20328911444842815,1.1890677457481622
1682361274857247700,17.941247802734374,-0.6407154860734939,0.23933131868839264,1.1149930402338504
1682361274877375700,17.961375732421875,-0.5755605845957994,0.25607553274035455,1.0550947441101073
1682361274897503700,17.981503662109375,-0.17387363487184046,0.16468436624407767,1.2852584214806555
1682361274917631700,18.0016318359375,0.27022162005789574,0.06078735391795635,1.5426801081329584
1682361274937760000,18.021760009765625,0.22975801917910574,-0.07324059277772903,1.652483129632473
1682361274957886700,18.04188671875,0.0414274774748832,-0.08636310920119285,1.4543424839884043
1682361274978014700,18.0620146484375,-0.1183661210529506,-0.09151450061500072,1.1972288403719662
1682361274998142700,18.082142822265624,0.058966056774929165,-0.21162381207346914,1.1403957770377398
1682361275018270700,18.102270751953125,0.3673579791426658,-0.19351298584342003,1.0479103855639695
1682361275038398700,18.122398681640625,0.40407822877466676,-0.15694997259974477,1.1747925521582365
1682361275058526700,18.142526611328126,0.22333529265522956,-0.13671148669123648,0.996263784956932
1682361275078653700,18.16265380859375,0.0031482348978519436,0.06261281577944755,0.7624649659544229
1682361275098782000,18.182781982421876,0.05921440551280975,0.03560439734458923,0.7118021156877279
1682361275118910000,18.202909912109376,0.22912264388501644,0.0671855305224657,0.49869478705823417
1682361275139038000,18.223037841796874,0.2272936748921871,0.0357756622582674,0.5037070622622967
1682361275159166000,18.243166015625,0.40986908713579173,0.012193126618862151,0.5230173274099826
1682361275179294000,18.2632939453125,0.45323659276254474,0.22424305514991283,0.42539808017909525
1682361275199420700,18.283420654296876,0.08199439259767533,0.48702071587741375,0.3359457727909088
1682361275219548700,18.303548583984377,0.12325929992198943,0.3095253833770752,0.231995568972826
1682361275239676700,18.3236767578125,0.2223579720556736,0.09007131606936454,0.24245091201364993
1682361275259804700,18.3438046875,0.09871522577404976,0.019705401945114134,0.38577334127724167
1682361275279932700,18.3639326171875,0.09295819661729038,-0.007314122405648231,0.21383096672892568
1682361275300060700,18.384060791015624,-0.056810193915292614,0.01998304984271526,0.100072485601902
1682361275320188000,18.40418798828125,-0.1773194644767791,-0.11870528987944125,0.01744037962257862
1682361275340316000,18.42431591796875,0.3461644575316459,-0.3200309953004122,0.11094634631574153
1682361275360444000,18.44444384765625,0.5583551097076386,-0.39062078130841255,0.2054652894437313
1682361275380572000,18.464572021484376,0.2745189519256353,-0.25573066482543944,0.21618892803192138
1682361275400700000,18.484699951171876,-0.07314180857837199,-0.10445639977455139,0.2206184349119663
1682361275420828000,18.504827880859374,-0.39727439397871495,0.11719430079460143,-0.04431377350091934
1682361275440954600,18.52495458984375,-0.4043587992817163,0.21795769127011297,-0.01749707824587822
1682361275461082600,18.54508251953125,-0.15379238535165785,0.5012064776182175,0.069111530148983
1682361275481210600,18.565210693359376,-0.4684568486502394,0.714261783799529,0.12086743634939193
1682361275501338600,18.585338623046876,-1.0337567725270986,0.31527883233726023,0.039354689788818356
1682361275521466600,18.605466552734374,-0.9906710795164108,0.0399888960391283,-0.2611129423856735
1682361275541594400,18.625594482421874,-0.8308551960915327,-0.16380582984387873,-0.06705284405350685
1682361275561721300,18.645721435546875,-0.3495155215252191,0.23847967029511927,0.16142682575285433
1682361275581849300,18.665849365234376,-0.22534721699953078,0.42815468541085716,0.09428513437211512
1682361275601977300,18.685977294921877,-0.32401685006618497,0.22861878601610658,-0.3473971411317587
1682361275622105300,18.706105224609374,-0.2684849324584007,-0.10353986945152283,-0.5531026690721511
1682361275642233300,18.7262333984375,-0.02070076965801418,-0.28132395576536656,-0.2838508438944816
1682361275662361300,18.746361328125,0.047578364787437016,-0.027192542830109596,0.04234101212322712
1682361275682489300,18.7664892578125,-0.16496084509789943,0.0981558383256197,0.2163274597197771
1682361275702616300,18.7866162109375,-0.24554244828820226,0.09268763604760169,0.14640812031924724
1682361275722744300,18.806744384765626,-0.3076362086296081,-0.07078560084104538,-0.17930676583647726
1682361275742872300,18.826872314453126,-0.0324562355119735,-0.04395779967010021,-0.20332710837125778
1682361275763000300,18.847000244140624,0.03520052925143391,0.12432429880499839,-0.19330723413825035
1682361275783128300,18.86712841796875,-0.16584047747664152,0.37438919295370576,-0.19831600221097467
1682361275803256300,18.88725634765625,-0.333654994972609,0.621806202942133,-0.22982991537153719
1682361275823383300,18.90738330078125,-0.34573242278993127,0.6634042877435684,-0.4084171347618103
1682361275843511300,18.92751123046875,-0.053046019076183434,0.8646896611541509,-0.5525754303276539
1682361275863639300,18.947639404296876,0.12356734295785426,1.0744833351910115,-0.5284685785531997
1682361275883767300,18.967767333984376,-0.027792919876053927,1.1072574775457382,-0.5408458295673132
1682361275903895300,18.987895263671874,-0.20329722468964753,1.1129717635393142,-0.6047948623865842
1682361275924023300,19.008023193359374,-0.5858849216680974,1.0336521431088448,-0.6093167237251996
1682361275944150300,19.028150390625,-0.43287992383446544,1.035684525719285,-0.47229719399809833
1682361275964278300,19.0482783203125,-0.04352697050478309,0.9076420831739902,-0.20251228485703468
1682361275984406300,19.06840625,0.3215747176110744,0.6369207699656486,0.03380582349002361
1682361276004534300,19.0885341796875,0.49435237393975257,0.32715047191679475,0.07720949640870094
1682361276024662300,19.108662353515626,0.43314423732645807,0.11446458356976509,-0.03038344782590866
1682361276044790300,19.128790283203124,0.4102887738525867,0.13373276314139365,-0.03550444410145283
1682361276064918300,19.148918212890624,0.7199217092573642,0.32478841896057126,0.006381225469708442
1682361276085045200,19.169045166015625,0.9731640643984079,0.34837037007808686,0.14824351905286312
1682361276105173200,19.18917333984375,1.1164999376654625,0.3420417515784502,0.30990181547403334
1682361276125301200,19.20930126953125,0.7265408351361751,0.5583990219146013,0.196741300240159
1682361276145429200,19.22942919921875,-0.01785655920803547,0.45628070969879625,0.254808289283514
1682361276165557500,19.2495576171875,-0.16852938776705412,0.4816442835360765,0.5694125833600759
1682361276185685500,19.269685546875,-0.012864121215604245,0.3359188847839832,0.9838654911547898
1682361276205812200,19.289812255859374,0.3569435161015019,0.2788268782526255,1.388237734439969
1682361276225940200,19.309940185546875,0.7084231407739222,0.30452479861080645,1.5192957254141568
1682361276246068200,19.330068115234376,0.6992600295007229,0.22652619765102863,1.649920585668087
1682361276266196200,19.3501962890625,0.8215835098773241,0.209124980995059,1.5918717168033123
1682361276286324200,19.37032421875,1.2082873369377105,0.4473714270561933,1.7048609671235084
1682361276306452200,19.3904521484375,1.2086632575780152,0.36998832764625544,1.8790730401694773
1682361276326580200,19.410580322265623,0.6949240461230277,0.17943419160842894,1.4195646005958318
1682361276346707500,19.43070751953125,0.08891454724967479,-0.1725520308792591,0.9461784423172473
1682361276366835500,19.45083544921875,0.23235446541309354,-0.3671060502082109,0.8805600149810313
1682361276386963500,19.47096337890625,0.5230365800997242,-0.20961539486050604,0.8873001368910074
1682361276407091500,19.491091552734375,0.3859615938583389,-0.2888683797955513,0.8443167352110147
1682361276427219500,19.511219482421875,0.14080551453921944,-0.42669221164286136,0.5040466694802046
1682361276447347500,19.531347412109376,-0.18337679175436494,-0.5256394926071166,0.24944880807697772
1682361276467474200,19.55147412109375,-0.31598318121433255,-0.5091267492234707,0.18581658612191676
1682361276487602200,19.571602294921874,-0.2726759544074535,-0.3595195406019687,0.22873452135026454
1682361276507730200,19.591730224609375,-0.30179625042974945,-0.26793781996965405,0.2269230880141258
1682361276527858000,19.61185791015625,-0.42976328965127464,-0.4858803136706352,0.05457797788381576
1682361276547986000,19.63198583984375,-0.46255146053135393,-0.5630810422509909,0.053848494565486904
1682361276568114000,19.652114013671873,-0.5315712207436561,-0.5640998639047146,0.26481881116628647
1682361276588242200,19.6722421875,-0.4638841704398393,-0.5336392591893673,0.5643307500511408
1682361276608369000,19.692368896484375,-0.3651941156396642,-0.5316022004038096,0.7371212658613919
1682361276628497000,19.712496826171876,-0.2297164815923199,-0.5934072069317102,0.6879220584064721
1682361276648625000,19.732625,-0.15808275775564834,-0.6017074177652597,0.5429483548045158
1682361276668753000,19.7527529296875,0.008389642682671547,-0.5863537812888622,0.6123229198038578
1682361276688881000,19.772880859375,-0.006221614461205899,-0.44753743127286433,0.47605800783634183
1682361276709009000,19.7930087890625,-0.0821299651434645,-0.36268005045950413,0.004453472277522087
1682361276729137000,19.813136962890624,-0.25161278117783364,-0.4256926792114973,-0.22566168977618217
1682361276749264100,19.83326416015625,-0.30414544390439985,-0.4294038086891174,-0.35084465123713016
1682361276769392000,19.85339208984375,0.11061726049184799,-0.2017828015387058,-0.3143324913978576
1682361276789520100,19.87352001953125,0.20339257482290266,-0.023058219504356384,-0.32793197768330573
1682361276809648000,19.893648193359375,0.014834617570973933,-0.0029372224956750867,-0.5143903688400984
1682361276829776100,19.913776123046876,0.11269757389724254,0.04812018004655838,-0.8494073363482951
1682361276849903900,19.93390380859375,0.2059831758379936,-0.22329496064484117,-0.7503413974404335
1682361276870030800,19.95403076171875,0.1779378155708313,-0.43688042818009853,-0.6773270146340131
1682361276890158800,19.974158935546875,0.23719964042194186,-0.4394388804912567,-0.4926707044631242
1682361276910286800,19.994286865234375,0.28282559249997136,-0.2486696403980255,-0.4179132773816585
1682361276930414800,20.014414794921876,0.3535656371662393,0.07496200974285602,-0.4761000934123993
1682361276950542800,20.03454296875,0.2246984342345968,0.2697106748610735,-0.5812386302322149
1682361276970670800,20.0546708984375,-0.03941964478380978,0.31226328390836716,-0.5751069956094026
1682361276990798800,20.074798828125,-0.03697323801238089,0.31056817042827606,-0.3503624206781387
1682361277010926000,20.094926025390624,0.1607190428096801,0.5847498532235622,-0.49894087077379223
1682361277031054000,20.11505419921875,0.08821947765760123,0.904056041380763,-0.48480888504683967
1682361277051182000,20.13518212890625,-0.19414719209372996,1.0015127915263176,-0.6996767936080693
1682361277071310000,20.15531005859375,-0.5976594575487076,0.9528191955059766,-0.812417037603259
1682361277091438000,20.17543798828125,-0.5971556727450341,0.9007125761717557,-0.5970201367318629
1682361277111565800,20.19556591796875,-0.28641163429319855,1.135087149235606,-0.6260258664637803
1682361277131693800,20.21569384765625,0.01903553985953331,1.2179191617012024,-0.4030149834573269
1682361277151821800,20.23582177734375,0.3479500988394022,1.1207505808472633,-0.2795265509545803
1682361277171948800,20.25594873046875,0.46413076561205086,0.9899977102994918,-0.10572072062194347
1682361277192076800,20.276076904296875,0.5142962608158588,0.9565180500239133,0.27862463367879386
1682361277212205000,20.296205078125,0.21141572228074074,0.9886205767273902,0.4144599220573902
1682361277232333000,20.3163330078125,-0.2938368889231235,1.0331266579300165,0.4289806148409843
1682361277252461000,20.3364609375,-0.3527225739382207,0.8607862239748238,0.4200228168815374
1682361277272589000,20.356589111328127,-0.029164573555439707,0.6801806504994631,0.57043082049191
1682361277292717000,20.376717041015624,0.09922200625240803,0.5641963100165128,0.8856570458590984
1682361277312844000,20.396843994140625,0.06617847237177192,0.5866279220551252,0.6657277622550726
1682361277332972000,20.416971923828125,-0.16905425189137457,0.3689724286019802,0.4324620272159576
1682361277353099800,20.437099853515626,0.056815527677536004,0.1032049384087324,0.5880874732136726
1682361277373227800,20.457227783203123,0.25264541216120123,-0.11338672520518302,0.5787076504498719
1682361277393355800,20.477355712890624,0.5832365260511636,-0.14191022437810896,0.6488730735659599
1682361277413483800,20.49748388671875,0.5819060080997646,-0.07095218957960606,0.8259335217803716
1682361277433611800,20.51761181640625,0.3081218001894653,0.0031488194197416305,0.7344961780548095
1682361277453739000,20.537739013671874,-0.18993936514034865,0.1672229448109865,0.9966484003603457
1682361277473867000,20.557866943359375,-0.37668577945828435,0.2618365804851055,1.0667284832805395
1682361277493995000,20.5779951171875,-0.26464279701225457,0.4170733194261789,1.1272791058331728
1682361277514123000,20.598123046875,-0.11322912349067628,0.49209670396745203,1.3558867859333752
1682361277534251300,20.618251220703126,-0.07044986608065665,0.5197393286526203,1.1244500198870897
1682361277554379300,20.638379150390627,-0.13317629830241204,0.481061515212059,1.1728607073128223
1682361277574507300,20.65850732421875,-0.27378201595321294,0.35902737317085265,0.9768839617043733
1682361277594634200,20.67863427734375,-0.4783645312130451,0.03833411456942558,0.7689069817006587
1682361277614762200,20.69876220703125,-0.518273932275176,-0.30992344278395173,0.827920896205306
1682361277634890200,20.71889013671875,-0.2911912697851658,-0.5968383504241704,0.706100689175725
1682361277655018200,20.739018310546875,0.04109758793339133,-0.5189356110543012,0.5559072050988674
1682361277675146200,20.759146240234376,-0.02254318265430629,-0.40810558459460733,0.4918102882415056
1682361277695274200,20.779274169921877,-0.14668474530354142,-0.5870148755460978,0.4498988997071981
1682361277715402200,20.79940234375,0.0007505991715937852,-0.5909276650756597,0.5169757091581821
1682361277735529200,20.819529296875,0.0781914931833744,-0.5244324549049139,0.511565374547243
1682361277755657200,20.8396572265625,0.04187339461147785,-0.45503041737675665,0.5681646291255951
1682361277775785200,20.85978515625,-0.13799794630520046,-0.2562806999236345,0.5603542476356029
1682361277795913200,20.879913330078125,-0.2675849148787558,-0.22881284728348253,0.4391209005832672
1682361277816041200,20.900041259765626,-0.17029219618849456,-0.33874387907683845,0.2396025368452072
1682361277836169200,20.920169189453127,-0.008646174727007747,-0.3605716800034046,0.27738953892588614
1682361277856297200,20.940297119140624,0.08320829843208194,-0.4310352092832327,0.23736557157337665
1682361277876425200,20.96042529296875,0.2337250961791724,-0.24371464833915232,-0.05390227057933807
1682361277896552400,20.980552490234373,0.01267601476497948,-0.022017186018824575,-0.10461480520665645
1682361277916680400,21.000680419921874,-0.009014496582746506,0.057848377856612204,0.02132160497009754
1682361277936808400,21.020808349609375,0.018990531674027443,-0.1716892765700817,0.1616425143301487
1682361277956936400,21.0409365234375,0.11075878785438835,-0.35912323476076125,0.29979426295757294
1682361277977064400,21.061064453125,0.11957206277661026,-0.2504915951281786,0.3333405587285757
1682361277997192400,21.0811923828125,0.07377835291624069,0.15937983009517193,0.4761854336082935
1682361278017320200,21.1013203125,0.023777765950560567,0.3475508703887462,0.7393927179247141
1682361278037447200,21.121447265625,-0.04765190494768321,0.1908306148916483,0.6167629480779171
1682361278057575200,21.1415751953125,-0.24420615818314254,-0.2129980230361223,0.3452402553588152
1682361278077703200,21.161703125,-0.19937106422185896,-0.4686830951541662,-0.03210369574725628
1682361278097831200,21.1818310546875,-0.042872415586188435,-0.13465221607387065,-0.6215460907012224
1682361278117959200,21.201959228515626,-0.1272480772972107,0.15731296069324016,-0.4136369152367115
1682361278138087200,21.222087158203124,-0.10916355455219745,0.2683329567670822,-0.3859264860123396
1682361278158215200,21.242215087890624,-0.27776487504430114,0.09400456386506557,-0.21377602167129514
1682361278178343400,21.262343505859373,-0.4247450961630791,-0.1488449920773506,-0.1345148534297943
1682361278198470400,21.282470458984374,-0.4329162007242441,0.1270773969054222,-0.2952688944876194
1682361278218598400,21.302598388671875,-0.4280839582622051,0.4121533986806869,-0.02371756019592285
1682361278238726400,21.322726318359376,-0.3400123646426946,0.4974614458709955,0.07871990097165107
1682361278258854400,21.3428544921875,-0.37548933621533215,0.22303134127259253,-0.017473112848401067
1682361278278982100,21.362982177734374,-0.2679986102461815,0.03531915066242218,-0.1544406201273203
1682361278299110100,21.383110107421874,-0.18499233719222247,0.03278407922685146,-0.1613420700788498
1682361278319238100,21.403238037109375,-0.10227313745133579,0.2965016511529684,-0.00803834502696991
1682361278339366100,21.4233662109375,-0.042951326041296124,0.3883814779490232,0.2774783862531185
1682361278359493400,21.443493408203125,0.09485686984546482,0.3599310440123081,0.16085165621340275
1682361278379621400,21.463621337890626,0.2095166837263852,0.28864626147747036,-0.09977788656949996
1682361278399749400,21.483749267578126,0.15464169565737246,0.23410510847270488,-0.2126151611983776
1682361278419877400,21.50387744140625,-0.07272102588303386,0.3795037594884634,-0.45312721410393714
1682361278440005400,21.52400537109375,-0.04048515512347221,0.46569501925408835,-0.35298750848472116
1682361278460133400,21.54413330078125,-0.18832243146300315,0.5481120211780071,-0.4901747959941625
1682361278480261400,21.564261474609374,-0.3894622589230537,0.5310030654668808,-0.687210110744834
1682361278500388400,21.584388427734375,-0.3359282371342182,0.4530675928711891,-0.7803542583882809
1682361278520516000,21.60451611328125,-0.17849837206304073,0.5695546221792698,-0.7059796931445598
1682361278540644000,21.62464404296875,-0.12886186916939912,0.6833014128684998,-0.4303068950086832
1682361278560772000,21.644772216796873,0.013359393919259308,0.682616353213787,-0.46941433203816413
1682361278580900000,21.664900146484374,0.22003625110983846,0.6413847636371851,-0.5177566304028034
1682361278601028000,21.685028076171875,0.18464520425498485,0.7441910581171512,-0.6573498100101948
1682361278621156000,21.705156005859376,-0.15213756734933703,0.8567085992723703,-0.8557096513628959
1682361278641284400,21.725284423828125,-0.05308635108657181,0.8152040379732847,-0.824446498093009
1682361278661411300,21.745411376953125,0.11338730972707271,0.6484042870104313,-0.5469628511428832
1682361278681539300,21.765539306640626,0.24712420105431226,0.2725134573221207,-0.0771633191794157
1682361278701667300,21.785667236328123,0.3951449807345867,0.09320669148564338,0.14376315876841544
1682361278721795300,21.80579541015625,0.17738193525373935,0.1274257719516754,0.3256862445831299
1682361278741923300,21.82592333984375,0.2511007034698501,0.27494448386132714,0.6119914958924054
1682361278762051300,21.84605126953125,0.32714228861033917,0.24196985049843786,0.7223077276110649
1682361278782179300,21.866179443359375,0.3498310172151774,0.19337211606800556,0.7824526919722556
1682361278802307300,21.886307373046876,0.2793839276134968,0.028164602732658386,0.9238666572660207
1682361278822434300,21.906434326171876,0.4532452875256538,0.2678179929822683,1.1789508408814668
1682361278842562300,21.926562255859373,0.5195160778233782,0.5864239239156246,1.6111708760350942
1682361278862690300,21.946690185546874,0.36988841093573716,0.6391805315911769,2.107210180148482
1682361278882818300,21.966818359375,0.16986498375236986,0.543794742500782,2.1869868966966868
1682361278902946300,21.9869462890625,0.05737093307059258,0.5228723659813403,1.828036095893383
1682361278923074300,22.00707421875,0.2625601455193013,0.5286293220728635,1.9734990443170068
1682361278943202300,22.027202392578126,0.6775110659640282,0.3846019594103098,1.957344028329849
1682361278963329300,22.047329345703126,0.8728449836242943,0.6897212167829275,1.7086691272348165
1682361278983457300,22.067457275390623,0.6567706218827516,0.8287626077264547,1.4857429999023675
1682361279003585300,22.087585205078124,0.4610884022414684,0.609748685401678,1.2507692919015885
1682361279023713300,22.10771337890625,0.5582365613618865,0.42163726634085175,0.9467132798463106
1682361279043841300,22.12784130859375,0.5078946136126294,0.30475510023534297,0.7936094612807035
1682361279063969300,22.14796923828125,0.3219780377149582,0.3572171088784933,0.6888087781131267
1682361279084097300,22.16809716796875,0.08148768518455327,0.38273733458220954,0.5570516989588737
1682361279104225300,22.188225341796876,-0.15690258979406208,0.20510931561291218,0.5630670137256384
1682361279124352300,22.208352294921873,-0.3228986231585964,0.08220189786851406,0.30560616410672664
1682361279144480300,22.228480224609374,-0.3044967050274834,-0.02902326538860798,0.2853781995922327
1682361279164608300,22.248608154296875,-0.24225049407072363,-0.22773265083134173,0.43348961669802666
1682361279184736300,22.268736328125,-0.11696220907177775,-0.3334364203184843,0.6135732121258973
1682361279204864300,22.2888642578125,0.0084662881154567,-0.27662147716283797,0.6491840392112731
1682361279224992300,22.3089921875,-0.18741112530436366,-0.3025011838287115,0.4587696039050817
1682361279245120300,22.329120361328126,-0.36962241694331166,-0.4083160124748945,0.299894800722599
1682361279265248300,22.349248291015623,-0.6258493408530951,-0.6214104816228151,0.05989537351429462
1682361279285375200,22.369375244140624,-0.6118512106388807,-0.717292529797554,-0.13337094409167766
1682361279305503500,22.38950341796875,-0.3260872265994549,-0.595643587681651,-0.236544318318367
1682361279325631500,22.409631591796874,-0.34102121289167553,-0.6976648692637681,-0.28700375496745106
1682361279345759500,22.429759521484375,-0.13401746183428911,-0.8230717026084661,-0.3311930253058672
1682361279365887200,22.44988720703125,0.030975057043507694,-0.8638958804279565,-0.4036228862226009
1682361279386015200,22.47001513671875,0.015156652599573134,-0.90174893348217,-0.4003378732025623
1682361279406143200,22.490143310546873,0.3192138336986303,-0.601628507310152,-0.31981004602611063
1682361279426271200,22.510271240234374,0.1490157090017572,-0.6026929216712713,-0.207442726996541
1682361279446398200,22.530398193359375,-0.028299006234668193,-0.8051432472079992,-0.3671060502082109
1682361279466526200,22.550526123046875,-0.12496548278536647,-0.8920312570661306,-0.7292828273206948
1682361279486654200,22.570654296875,-0.1928600748926401,-0.8555646899342536,-0.6191454593002795
1682361279506782200,22.5907822265625,0.009625906479358673,-0.7580278602898121,-0.3679126904159784
1682361279526910200,22.61091015625,0.16261574327647685,-0.587926145172119,-0.29108371775746344
1682361279547038700,22.631038818359375,0.14963818828165532,-0.3490542606890201,-0.0738216075360775
1682361279567166700,22.651166748046876,0.09576167319808154,-0.17419336834549903,-0.05647942759096622
1682361279587294700,22.671294677734377,-0.11343469253275543,-0.1913788964241743,0.04986263979971409
1682361279607422700,22.691422607421874,-0.27043953712489455,-0.230059632474184,0.05310673628747463
1682361279627550000,22.711550048828126,-0.22144841946270316,-0.21925123821198939,-0.2663449978202581
1682361279647678000,22.731677978515624,-0.22688973373379556,-0.09318506417572497,-0.39665830790698525
1682361279667806000,22.751805908203124,-0.3177104433983564,0.07973580001592635,-0.26364216860234735
1682361279687934000,22.771933837890625,-0.3810006835153326,0.007648468926548958,-0.28033026855289933
1682361279708062000,22.79206201171875,-0.38077801720798016,-0.09554653261005878,-0.2747726344257593
1682361279728189700,22.812189697265627,-0.07214578327834606,0.0065723641276359554,0.08869418249726295
1682361279748317700,22.832317626953124,0.15843465819954872,0.06758183636367321,0.20734102018773554
1682361279768445700,22.85244580078125,0.07525726636238396,0.1177840833812952,0.2997872486948967
1682361279788572700,22.87257275390625,0.12739011611640452,0.19613164390921592,0.3488870874285698
1682361279808700700,22.89270068359375,0.27110600167699156,0.26802842086255546,0.12694938661158084
1682361279828829000,22.912828857421875,0.521351476556994,0.40309389391243455,0.22195523647367954
1682361279848957000,22.93295703125,0.6468663368534296,0.6082049630910158,0.1126473050147295
1682361279869085000,22.9530849609375,0.39816820101328193,0.8142313935488462,-0.0817424636632204
1682361279889213000,22.973212890625,0.252878234536387,0.9860866743355989,-0.15514029282927513
1682361279909341000,22.9933408203125,0.20221710130274295,1.1641361335873603,-0.4504647168964147
1682361279929469000,23.013468994140624,0.13506255044043064,1.321317576855421,-0.44251171206533907
1682361279949596000,23.033595947265624,0.2213601931899786,1.2538368627786636,-0.5010334591388702
1682361279969723600,23.0537236328125,0.3294049728453159,1.3489245457053183,-0.6857119811415672
1682361279989851600,23.0738515625,0.2148240694195032,1.5281716903090476,-0.5525485423207283
1682361280009979600,23.093979736328127,-0.1306114162504673,1.4692057065993547,-0.6026590194016694
1682361280030107600,23.114107666015624,-0.4184726648300886,1.4695722018241881,-0.5773825393259525
1682361280050235600,23.134235595703124,-0.21884740665145216,1.124031502214074,-0.22148528087437153
1682361280070363600,23.15436376953125,0.05531681355237961,0.7701789013326168,-0.05650690011978149
1682361280090491600,23.17449169921875,0.09896364757716655,0.7814414691030979,0.32928806846737857
1682361280110620000,23.194619873046875,-0.14931092908866703,0.9438222345799208,0.463804675462842
1682361280130747000,23.214746826171876,-0.5489467184364796,0.7756722380518912,0.548151184144616
1682361280150875000,23.234875,-0.29120120665729043,0.3692547526746988,0.7305126613765954
1682361280171003000,23.2550029296875,0.16952186940312386,-0.08547580497264862,1.0017010075747965
1682361280191131000,23.275130859375,0.4079875111728906,-0.23320085310935973,0.8410229543626307
1682361280211259000,23.2952587890625,-0.026472411862015724,-0.22825170626938343,0.560855767416954
1682361280231387000,23.315386962890624,-0.2966583030194044,-0.14217793540358542,0.3236597071915865
1682361280251515000,23.335514892578125,-0.08761179408803582,-0.1902723964869976,0.22504911083579063
1682361280271643000,23.355642822265626,0.24635201110541818,-0.20655074659287928,0.206014155498147
1682361280291769900,23.375769775390626,0.2746798415757716,-0.07065875959098339,0.16690730299055576
1682361280311897900,23.39589794921875,-0.05314765281975269,0.15595745443105696,0.3250660668581724
1682361280332025900,23.41602587890625,-0.26440555419027806,0.3703279348641634,0.487790531206131
1682361280352153900,23.43615380859375,-0.20727197353951632,0.506651299020648,0.7860960169106721
1682361280372281900,23.45628173828125,-0.11105324075631796,0.7424450912326573,1.0452712692320347
1682361280392409900,23.476409912109375,-0.12433891185224055,0.7264601711153984,1.3085674008756876
1682361280412537900,23.496537841796876,-0.22914193310737607,0.6259013633012771,1.2608002720504998
1682361280432665900,23.516665771484377,-0.3274174522899091,0.5427531244933604,1.3533335943192242
1682361280452793900,23.5367939453125,-0.03520984506905079,0.3562491406291723,1.7603332634985447
1682361280472920800,23.5569208984375,0.3901438845116645,0.2588859139859676,2.094248991766572
1682361280493048800,23.577048828125,0.4650327559530735,0.025869769793748856,2.086290726238489
1682361280513176800,23.5971767578125,0.4584042777240276,-0.042728550136089324,1.8050678927600383
1682361280533304800,23.617304931640625,0.38474984344840046,-0.05101005626916885,1.512499489402771
1682361280553432800,23.637432861328126,0.28013971441686153,-0.022642039918899536,1.3691390662163496
1682361280573560800,23.657560791015626,0.18647899555340408,-0.09424421783983707,1.1612445037990808
1682361280593689000,23.677689208984376,0.1180284865964204,-0.22742226970791815,0.8842524397581816
1682361280613817000,23.697817138671876,0.06646415744535625,-0.12222761878669261,0.645042117100954
1682361280633943800,23.71794384765625,-0.18946349125690756,-0.06944996832311152,0.38188743975460526
1682361280654071800,23.73807177734375,-0.26791093196272847,-0.012055179452896117,0.45385319029092785
1682361280674199800,23.75819970703125,-0.04209200579822063,-0.14230010047852992,0.3051356239855289
1682361280694327800,23.778327880859376,-0.1500601400207728,-0.18943828375041483,0.2420335633844137
1682361280714455800,23.798455810546876,-0.2801443175267428,-0.20139058735072612,0.2312760225266218
1682361280734583800,23.818583740234374,-0.1764257305074483,-0.2385831306695938,0.1284101068139076
1682361280754711800,23.8387119140625,-0.1376256058614701,-0.22235037327110765,0.17709844213724135
1682361280774839800,23.85883984375,0.07503164091296494,-0.13744506166279316,0.43853404060602186
1682361280794967800,23.8789677734375,0.2533925772666931,-0.022169161710143086,0.3600187222957611
1682361280815095000,23.899094970703125,0.047290670419856906,-0.24339842199683187,0.30716917563974855
1682361280835223000,23.91922314453125,-0.058202013599872586,-0.26378070029020306,-0.05561959589123726
1682361280855351000,23.93935107421875,-0.01938274586200714,-0.22548691773116586,-0.19187281742095946
1682361280875479000,23.95947900390625,0.005126768429204821,-0.24657003777027128,0.0052162733435630795
1682361280895607000,23.97960693359375,0.12301840383820235,-0.12816869927346705,-0.016405775877833366
1682361280915735000,23.999735107421873,-0.028774843585491178,-0.09136427848935126,-0.13539806600511073
1682361280935862800,24.01986279296875,-0.16104162582755088,-0.036758243554830546,-0.2815571799993515
1682361280955990800,24.03999072265625,-0.1444306097012013,0.10538754314482211,-0.21483575985729694
1682361280976118800,24.060118896484376,-0.22656068444252012,0.025738836890459058,0.012782324683666229
1682361280996245800,24.080245849609376,-0.21226678615212438,0.007180266892910003,0.0373135393500328
1682361281016373800,24.100373779296874,-0.3775076903004199,0.0003127192109823227,-0.1270078388005495
1682361281036501800,24.120501708984374,-0.5325801055252551,-0.013900515058636664,-0.48720250218510625
1682361281056630000,24.140630126953123,-0.2940226207535714,-0.13136778757572173,-0.6122136142104864
1682361281076758000,24.160758056640624,0.038783027380704875,-0.19985738643407822,-0.4240542643547058
1682361281096886000,24.180885986328125,0.16239545158930122,-0.18475450984835623,-0.4563140274465084
1682361281117014000,24.201013916015626,0.05743636298961937,-0.01431552560031414,-0.42050797004997725
1682361281137142000,24.22114208984375,-0.23296938244104384,0.14382044191360474,-0.19939795222878454
1682361281157270000,24.24127001953125,-0.43193478847146033,0.07292728904485703,-0.002496492990851402
1682361281177397000,24.26139697265625,-0.3395674704194069,0.03280161488354206,0.20784546257853506
1682361281197524700,24.281524658203125,-0.18759945095069705,0.04777355856597423,0.3558049039930105
1682361281217652700,24.30165283203125,-0.10426124252863228,0.12836626767218112,0.32155776647627354
1682361281237780700,24.32178076171875,-0.19955343505144119,0.26256957093477246,0.07727437833845614
1682361281257908700,24.34190869140625,-0.1862584846705198,0.4753542434811592,-0.38878830518424506
1682361281278036700,24.36203662109375,-0.15902202963344753,0.6025894612967968,-0.42042964411675926
1682361281298164700,24.382164794921874,-0.2146492243092507,0.6509498798400163,-0.5949976909935474
1682361281318292700,24.402292724609374,-0.3845727333158254,0.7205997546494006,-0.9139864837646484
1682361281338421000,24.4224208984375,-0.4444060744445771,0.9033008390992879,-1.0426660551697016
1682361281358548000,24.4425478515625,-0.4189717734586447,1.2030576926559209,-1.053151793348789
1682361281378676000,24.462676025390625,-0.5159615636795759,1.2724047851264475,-0.8961328471660613
1682361281398804000,24.482803955078126,-0.5082417830824851,1.2034937459856272,-0.8195850295364856
1682361281418932000,24.502931884765626,-0.36982166584245857,1.1313859566301108,-0.38631928472220894
1682361281439060000,24.52306005859375,-0.17346969371344892,1.0108382537543774,-0.13131634964942931
1682361281459188000,24.54318798828125,-0.04590484208464622,0.8889975884586572,-0.16478665757477282
1682361281479316000,24.56331591796875,0.01289338384270668,0.7120178042650223,-0.28792379242181776
1682361281499444000,24.58344384765625,0.43446043449155985,0.5814847139477729,-0.39895957058668136
1682361281519571700,24.60357177734375,0.772308314576745,0.45530046648979183,-0.37544893113970756
1682361281539699700,24.62369970703125,0.8470547088075429,0.4098632419168949,-0.2961567832380533
1682361281559827700,24.64382763671875,0.7188397592395543,0.29738369468450543,-0.1296212361693382
1682361281579955500,24.66395556640625,0.4583183895388618,0.05256956067085266,0.267083833488822
1682361281600083700,24.684083740234374,0.4039583287220448,-0.2321878766745329,0.6400351025938987
1682361281620211700,24.704211669921875,0.5379531038004904,-0.04094400480687618,0.8445850307583809
1682361281640339700,24.724339599609376,0.5195728129792958,0.0210445415943861,1.2861831351101398
1682361281660467700,24.7444677734375,0.5449357657620683,0.18845804054141044,1.2380208694875239
1682361281680595700,24.764595703125,0.37228491415083403,0.16536416520178318,1.4170400505542755
1682361281700723700,24.7847236328125,0.09226798586342483,0.26810850036144257,1.475691561487317
1682361281720850700,24.8048505859375,-0.07341711838841437,0.27449031035304067,1.630149717271328
1682361281740978700,24.824978759765624,0.07600074167344718,0.0051303486257791514,1.6239947017729282
1682361281761106700,24.845106689453125,0.49240131293721495,-0.34206863958537576,1.4402519993156193
1682361281781234700,24.865234619140626,0.8631605518907308,-0.5084264919996261,1.3430974469870327
1682361281801362700,24.88536279296875,1.280893796530366,-0.6300321794956922,1.4917027850896118
