time,seconds_elapsed,z,y,x
1682364397550551300,0.02755126953125,-0.033223055166006085,-0.0685134181253612,-0.05939502277672291
1682364397570677500,0.047677490234375,0.5395078589618205,0.3017519728966057,0.11692388635538518
1682364397590804500,0.067804443359375,0.6059954703480005,-0.17001257552951574,0.10264847356975078
1682364397610931500,0.087931396484375,0.25016309382617474,-0.7046759170696139,0.09410210595540702
1682364397631058400,0.108058349609375,-0.27579613225460053,-0.8713751302674412,0.47900662850886583
1682364397651185400,0.128185302734375,-1.505460676807165,-1.016686541391164,0.3012389818731695
1682364397671312600,0.148312744140625,-1.4152262791305779,-1.0098227931015193,-0.22002456067204473
1682364397691439400,0.168439453125,-1.313158235797286,-0.9973729883078485,-0.6017018648073077
1682364397711566300,0.18856640625,-0.8931599688351154,-0.7925614135324954,-0.341486126989685
1682364397731693600,0.208693603515625,-0.7078022323966026,-0.7820478374984114,-0.22351145293973385
1682364397751819300,0.2288193359375,-0.9371165994614362,-0.02124795521199703,0.4486126592889428
1682364397771946500,0.248946533203125,-1.184065991938114,0.23527006059885025,1.1417441229067742
1682364397792073500,0.269073486328125,-0.8332429680109024,0.2575580263830721,0.7594879959702492
1682364397812200400,0.289200439453125,-0.8941296906501054,-1.1921160274028777,0.08466613255757838
1682364397832327400,0.309327392578125,-1.1886644256442784,-1.7106150006055831,-1.0018544445708393
1682364397852454400,0.329454345703125,1.4742261651098727,-0.9164838535383343,-1.2225869343165308
1682364397872581400,0.349581298828125,1.596745460319519,-0.3208620392970741,0.5722196766700596
1682364397892708600,0.36970849609375,-1.0337994426250456,0.15060732557475565,1.745183040639758
1682364397912834300,0.389834228515625,-0.5009919580847024,0.7755218697957694,0.46697472033370285
1682364397932961500,0.40996142578125,-1.1428864248096942,-0.9922855289757251,-0.3722155021764338
1682364397953088500,0.430088623046875,0.11206395216882228,-0.2871963549301028,-1.5386225033052265
1682364397973215500,0.450215576171875,1.4196622157514094,0.11886632566004991,-0.6662388535823672
1682364397993342500,0.470342529296875,0.6196726980447769,0.003925649011135101,1.33259329636842
1682364398013469400,0.490469482421875,0.10152677606344222,0.06786153008788824,0.8740393810406327
1682364398033596400,0.510596435546875,0.6923246772795916,-1.0251417966559528,0.33289084219969806
1682364398053723600,0.5307236328125,-0.823060596692562,-3.63278893135488,1.8857861279420554
1682364398073850400,0.550850341796875,-2.864191161733866,-3.9245574165061115,1.1653914674106984
1682364398093977300,0.570977294921875,-1.8031185122579334,-3.019858985568583,0.7540911053627729
1682364398114103600,0.591103515625,-0.31189678868353365,-3.4285441236168146,1.0228985477738082
1682364398134230300,0.611230224609375,-0.6271756210207938,-3.117439362093806,0.5904089018985629
1682364398154358300,0.631358154296875,-0.7664005518376826,-2.210630807134509,1.443257318611443
1682364398174485200,0.6514853515625,-2.29552384378314,-2.0068632615193724,2.0734522874534127
1682364398194612000,0.671612060546875,-3.051332858979702,-2.642057353822887,0.42703927151486276
1682364398214739200,0.6917392578125,-1.5363514896333217,-2.4676912592589852,0.794742556963861
1682364398234866200,0.7118662109375,-1.1922744328349828,-2.177821008944511,3.0343785093083975
1682364398254993200,0.7319931640625,-1.0499924525350333,-2.473238371992111,4.231981735950708
1682364398275120000,0.7521201171875,0.17561258749365805,-1.7667168270558118,4.059514168484509
1682364398295247000,0.7722470703125,1.1212655446320772,-0.9816799638092517,4.16521004692614
1682364398315373000,0.792373046875,2.4430372949957846,-0.8443953534051776,4.523149624860286
1682364398335500000,0.8125,3.9615895085662602,1.3974775642111896,3.0490257510811087
1682364398355627000,0.832626953125,1.7514374248594045,2.86454684330374,1.9858909083783625
1682364398375754200,0.852754150390625,-0.25290742409825323,4.713101411090791,2.7642978320911524
1682364398395881200,0.872881103515625,-0.4480319367915392,5.1812745108962055,1.382021928665042
1682364398416008000,0.893008056640625,0.2376373742520809,5.277701333472132,-1.487625744909048
1682364398436135200,0.91313525390625,0.19646014521121977,6.014726737743616,-1.772935847701132
1682364398456262100,0.93326220703125,-1.422580149024725,6.512231438234448,-0.6271116158738732
1682364398476389000,0.95338916015625,-1.304640582820773,6.6017661632090805,0.9006292818024754
1682364398496516000,0.97351611328125,0.34474341175258155,6.43477352002263,1.295390523916483
1682364398516642000,0.99364208984375,1.657453319260478,6.106890642178058,1.4549667533665895
1682364398536769000,1.01376904296875,1.2063164021909236,4.947887779825925,1.1297101323723793
1682364398556896300,1.033896240234375,0.4841670800119638,3.913055194760859,-0.16669512154459953
1682364398577023000,1.05402294921875,1.4336772971004246,2.7842180458307264,-2.319243157544732
1682364398597150200,1.074150146484375,2.8407611863076685,1.491409939622879,-3.422160560059547
1682364398617277200,1.094277099609375,3.2392835345208644,0.5613657627657056,-1.4526841953873633
1682364398637404200,1.114404052734375,2.5165619654119014,0.4759390576317906,-0.5457786097943782
1682364398657531100,1.13453125,3.410305871614814,0.2883426023557782,-0.4424304635226726
1682364398677658000,1.154658203125,5.0015316917300225,-1.429935772484541,-0.9057955785244702
1682364398697785000,1.17478515625,4.039512121680379,-4.4872865765795105,-0.7288152098089457
1682364398717911000,1.1949111328125,1.8948001861333845,-4.371549781116843,-5.294239795818925
1682364398738038000,1.2150380859375,1.3304893098264932,-2.599430802756548,-8.390986498495936
1682364398758165200,1.235165283203125,1.649756335017085,-2.828835478453338,-6.395451563459634
1682364398778292200,1.255292236328125,2.4510943447232245,-2.092753200250864,-2.756671282735467
1682364398798419000,1.2754189453125,2.3247002539068458,-0.6530836769983172,-0.27276246364712714
1682364398818546200,1.295546142578125,-0.5501765524923801,1.0383435157954692,0.7203355507552623
1682364398838673200,1.315673095703125,-4.928503864920139,2.2221447193175554,1.5455968723624944
1682364398858800000,1.335800048828125,-6.913254371091723,3.9412624675914643,3.4817449679285284
1682364398878927000,1.355927001953125,-6.067221479612589,4.587304993906617,5.098596227687597
1682364398899054000,1.37605419921875,-4.44970824881345,4.214468875613808,5.022658066388964
1682364398919180000,1.396179931640625,-4.201167203231155,3.3716096457347273,2.897500141617656
1682364398939307300,1.416307373046875,-3.0252938700988885,2.0139558501288293,0.6199439162015915
1682364398959434000,1.43643408203125,-2.0331854512557386,1.4048480929791927,-1.3977590115010738
1682364398979561200,1.456561279296875,-2.1100512487933036,1.1036983237594364,-1.977413587412238
1682364398999688200,1.476688232421875,-2.2887509886473416,1.2200339618980884,-1.5163959123194217
1682364399019815200,1.496815185546875,-1.360683957082033,1.3057704636335372,-1.1302116521537304
1682364399039942100,1.516942138671875,-0.29767595562934873,1.4692232422560452,-0.3715378951758146
1682364399060069000,1.537069091796875,-0.05154021762311458,1.8923592227220534,0.30305180344879623
1682364399080196000,1.557196044921875,0.4304179541677236,1.8603791533544658,0.7494722133904695
1682364399100323300,1.5773232421875,1.4221762443989514,1.3473653335645794,0.9267162014782429
1682364399120450000,1.597449951171875,1.0464429433599114,0.733986182706058,0.935289384034276
1682364399140576000,1.617575927734375,0.059390638862550256,0.4619669386416673,0.3231184399217367
1682364399160702700,1.63770263671875,0.4162576191291213,0.4074512123391032,-0.2528273445993662
1682364399180829700,1.65782958984375,1.2077177934214471,0.4003542398154735,-0.9364648575544356
1682364399200957000,1.67795703125,1.3013660911947489,0.3764592772260308,-0.5206769017636775
1682364399221084000,1.698083984375,0.6376143051877617,0.4743570491373539,-0.6072977851182222
1682364399241210600,1.718210693359375,0.026692192092537877,0.5305442157834768,-1.06003220051229
1682364399261337900,1.738337890625,0.6865905175417661,0.5702659853190183,-1.4139350702762603
1682364399281464800,1.75846484375,1.4343720013663173,0.4019134519562125,-0.5475163933724164
1682364399301591800,1.778591796875,1.8742618404954672,0.12549860328137874,-0.17166589569449422
1682364399321718800,1.79871875,0.8892617923527956,-0.08152326795458793,-0.6143704999834299
1682364399341845800,1.818845703125,0.27096476657539603,-0.09815759189128875,-1.379725926682353
1682364399361972000,1.838971923828125,1.453807354198396,-0.38155806166976686,-1.6778057869374752
1682364399382098700,1.8590986328125,2.381815933574736,-0.74190879239887,-1.4157991105824708
1682364399402225700,1.8792255859375,1.1861115262910722,-0.47981297645568843,-0.772718648943305
1682364399422353000,1.899352783203125,-0.1392012576803565,-0.09629442836791276,-0.5054144507020711
1682364399442479900,1.91947998046875,0.14430179568976162,0.24761224029958245,0.18144786951839922
1682364399462606600,1.939606689453125,0.7838838938191532,0.5408426146969199,0.013991700473427772
1682364399482733800,1.95973388671875,0.10184387918859719,0.18410189115852116,-0.6461211445093155
1682364399502860800,1.97986083984375,-0.28740795185416934,0.1249994215875864,-0.9109107295811176
1682364399522987800,1.99998779296875,-0.5828577558666468,0.2191495314031839,-0.7841606649339199
1682364399543114800,2.02011474609375,-0.5487491500377655,0.22218290774971244,-0.1658428886294365
1682364399563241700,2.04024169921875,0.3826072784617543,0.4253440119042992,-0.4140244532495737
1682364399583368000,2.060367919921875,1.5268851576298474,0.10789192718118429,-0.6083224519908428
1682364399603495000,2.080494873046875,2.03657743178159,0.0014259411498904228,-0.37104923487603664
1682364399623621600,2.10062158203125,1.7018264217332004,0.09667495211809873,0.08402209903299808
1682364399643748900,2.120748779296875,1.1344751548171044,0.06066226623356342,-0.05278641829192638
1682364399663875800,2.140875732421875,1.0453253375068305,0.25885347302109,-0.3251835557579994
1682364399684002800,2.1610029296875,1.1104124344453215,0.23077070335298774,-0.13323650405704973
1682364399704129800,2.1811298828125,1.0339528796210884,0.22348931417316198,0.36323067007958887
1682364399724256800,2.2012568359375,0.7241185764253139,0.35320465836673975,0.642899259853363
1682364399744383700,2.2213837890625,0.30945816335976123,0.2920511014848947,0.5920838493734598
1682364399764511000,2.241510986328125,0.8369988134130835,0.16782938627153635,0.08149754899144172
1682364399784637700,2.2616376953125,1.3444815948218107,0.14637246448397637,0.19392156664431093
1682364399804764700,2.2817646484375,1.2328709393784403,0.10667524486780167,-0.11521160254478453
1682364399824891000,2.301890869140625,0.6302104586720466,-0.060219783163070674,-0.04420388338565826
1682364399845017600,2.322017578125,0.27105770555585623,-0.38253070609420536,-0.437765394321084
1682364399865144800,2.342144775390625,0.6279971665367484,-0.5505117757961153,-1.2991028224378824
1682364399885271800,2.362271728515625,0.8772682799592614,-0.48236821389645335,-0.944280499741435
1682364399905398800,2.382398681640625,0.5143690337911248,-0.35940000587552784,-0.4802162965595722
1682364399925525800,2.40252587890625,0.05845686514377594,-0.20293723227083682,-0.5819780504226684
1682364399945652700,2.42265283203125,0.10492138693779707,-0.3292188026234507,-0.5651017344236373
1682364399965779700,2.44277978515625,0.31275457455664873,-0.30741087544113394,-0.887121857714653
1682364399985907000,2.462906982421875,0.5579433871015906,-0.2939423220589757,-0.7091366958707571
1682364400006033700,2.48303369140625,0.2876595885276794,-0.06265373231172561,-0.0205740014731884
1682364400026160600,2.50316064453125,-0.2794447178900242,0.49157560270279643,0.5448071344137192
1682364400046288000,2.523287841796875,-0.8228399396792053,0.630510026140511,0.9016583325892686
1682364400066413800,2.543413818359375,-0.6060135905265808,0.5459516282737255,0.46550914129316806
1682364400086540800,2.563540771484375,0.11000818868279456,0.052224108234047883,-0.27889643635749817
1682364400106667800,2.583667724609375,0.5514180769860744,-0.25652882946580646,-0.4877542908489704
1682364400126794800,2.603794677734375,0.27430910856723784,0.020163667106628418,-0.19073299973607064
1682364400146922000,2.623921875,0.29959932490736246,0.255634510974586,0.2082324160695076
1682364400167049000,2.644049072265625,0.9350234265744686,0.3069216306194663,0.31495559173226356
1682364400187176000,2.664176025390625,1.3684624821290372,-0.264135212816298,0.09271627762019634
1682364400207303200,2.68430322265625,1.4536352125018834,-0.45204058791100976,0.47921150343120095
1682364400227430100,2.70443017578125,1.8844918503478167,0.007041442944109439,0.8354962998956441
1682364400247556900,2.724556884765625,2.2315195736452935,0.3701438104689121,0.36271921342611313
1682364400267684000,2.74468408203125,1.4100819019794464,0.18876754488199948,-0.3151595898717642
1682364400287811000,2.76481103515625,0.11251344950199127,-0.23205548246651886,-0.5805845502376556
1682364400307938000,2.78493798828125,-0.25369477508366106,-0.32489509420543905,-0.6436784275323152
1682364400328065000,2.80506494140625,0.10014730440378189,-0.44354456224441524,-1.0017635514169931
1682364400348191000,2.82519091796875,-0.1905634883880615,-0.2744149070292711,-1.3501701618522406
1682364400368318200,2.845318115234375,-1.1482742553278804,-0.019288930098712444,-1.2760755825936794
1682364400388445200,2.865445068359375,-1.6042863772183655,0.17366759090572595,-0.9915227279096841
1682364400408572000,2.885572021484375,-1.0825935764104127,-0.14161854795515535,-0.6077133801817893
1682364400428699100,2.90569921875,-0.023358663755655287,0.18198972131013869,-0.4607242451041937
1682364400448826000,2.925826171875,-0.09531681550741194,0.34874621765315533,0.2816127095788717
1682364400468953000,2.945953125,-0.8667565305560827,0.49025604453682897,0.7940729871392249
1682364400489080000,2.966080078125,-1.4136641443803906,0.7184826163649558,1.1242688181012868
1682364400509207000,2.98620703125,-0.7871718294486403,1.0655942185536027,1.5329484031915663
1682364400529334000,3.006333984375,0.4948702603340149,0.9997089569747447,1.3147434591621159
1682364400549461200,3.026461181640625,1.0130804797232151,0.4169923631444573,1.6230068597793579
1682364400569588000,3.046587890625,0.8909709343582392,0.19266952075660226,1.8072277011424303
1682364400589715000,3.06671484375,0.8652735985219479,0.33805940394401546,1.5869120485693216
1682364400609842200,3.08684228515625,0.9539712881505489,0.34914076992869375,0.5290618682712316
1682364400629968000,3.1069677734375,0.6646487348467112,-0.20625322495102882,-0.25776830813288687
1682364400650095000,3.12709521484375,0.05430559068322181,-0.5094777546182274,-0.19678397033810616
1682364400670222000,3.14722216796875,0.02202303123772144,0.00937719241529703,-0.25088147122859955
1682364400690349000,3.16734912109375,-0.40078912410140033,0.15835925487577915,-0.3957844476819038
1682364400710476000,3.18747607421875,-1.053041903233528,-0.20081571007221935,-0.5378109919160604
1682364400730603000,3.20760302734375,-0.6933470060646534,-0.5730586847774685,-0.550760489860177
1682364400750730000,3.22772998046875,0.08362637771368026,-0.3654357789084315,-0.6767576903134584
1682364400770857200,3.247857177734375,0.43052959784865374,-0.21750644037127492,-0.8705202670037746
1682364400790984000,3.26798388671875,0.14360183072686195,-0.03970642583593726,-0.6268500423282385
1682364400811111000,3.28811083984375,-0.40137393825203177,0.1422466167256236,-0.22096096473932264
1682364400831238100,3.308238037109375,-0.6950479647636413,0.22480711877346038,-0.11013035375773907
1682364400851365000,3.328365234375,-1.0844015026152134,0.05267857400327921,0.04719371285140514
1682364400871491800,3.348491943359375,-1.0211258390128612,0.03362739818319678,-0.08818798654079436
1682364400891619000,3.368619140625,-0.6425552687212824,0.3159809892572462,-0.5284948820382356
1682364400911746000,3.38874609375,-0.5767334277674555,0.4273818013422191,-0.08230360467731952
1682364400931872300,3.408872314453125,-0.5799532665967941,0.41698593340367074,0.6784042884767055
1682364400951999000,3.4289990234375,-0.36550621379613873,0.43269948923364276,0.9472563006818294
1682364400972126000,3.4491259765625,-0.052362639921903605,0.36996933068484067,0.8374947802364826
1682364400992253200,3.469253173828125,0.28870296010076996,0.17256635166555642,0.6383312212854624
1682364401012380200,3.489380126953125,0.6561310818701982,0.016107377453148365,0.22290333097875117
1682364401032507000,3.5095068359375,0.5716939722955227,0.07932488112747668,0.24817221226990221
1682364401052634000,3.529634033203125,0.22619185113012788,0.33466946924477814,0.4319365420371294
1682364401072761000,3.549760986328125,0.030630700585246085,0.3449256364516914,0.596432692232728
1682364401092888000,3.56988818359375,0.14254384610652923,0.26630057415664193,0.43519408252835273
1682364401113015000,3.59001513671875,-0.3130994424715638,0.12029358198419213,0.050444239079952234
1682364401133142000,3.61014208984375,-0.7092886715620755,0.08139496539980173,-0.21365034946501255
1682364401153269500,3.63026953125,-0.967011386987567,-0.19238456633538006,-0.31627427311539646
1682364401173396500,3.650396484375,-0.3094797906696796,-0.3897109729871154,-0.4712503152936697
1682364401193523700,3.670523681640625,0.3945931920707226,-0.8446038815893232,-0.9047329177290201
1682364401213650700,3.690650634765625,0.1236661271572113,-0.9703753104627132,-1.183555119806528
1682364401233777400,3.71077734375,-0.6198644212245941,-0.3530217030152678,-0.7816068887978792
1682364401253904600,3.730904541015625,-1.7344810293614863,0.4759219603665173,-0.13218904083073138
1682364401274030600,3.751030517578125,-2.6989590984791514,1.282090897360444,0.41867257131636143
1682364401294157600,3.771157470703125,-3.0929625079631804,1.2729670951843262,0.45534898180663586
1682364401314284500,3.791284423828125,-2.470788056230545,0.7435863702222705,0.24414427192807195
1682364401334411500,3.81141162109375,-1.3065817800164221,0.42915904014781114,0.22883330554962156
1682364401354538800,3.831538818359375,-0.5829416347578168,0.5100320275001228,0.5661041894644498
1682364401374665500,3.85166552734375,-0.48699791952371596,1.0566387586817145,1.0027367803633211
1682364401394792400,3.87179248046875,-0.5193199341967701,0.9211033300325274,1.0485673881679773
1682364401414919700,3.891919677734375,-0.18002894263118505,0.395179759787023,0.7716688476294279
1682364401435046700,3.912046630859375,0.07234948915690183,0.34000673861950637,0.7943933051347732
1682364401455173400,3.93217333984375,0.12225947522968053,0.4238485126495361,1.0584902317672966
1682364401475300600,3.952300537109375,0.12326602192372083,0.42791824630647896,1.0467816737949847
1682364401495427600,3.972427490234375,0.13773206191062926,0.15365239235907793,0.19164953005909918
1682364401515554600,3.992554443359375,0.2085761149406433,-0.06774053405672312,-0.5799176107615233
1682364401535681800,4.012681884765625,0.3403253030493855,-0.03515519227236509,-0.6841969004034996
1682364401555808500,4.03280859375,0.012516367223858833,0.25454145504087206,-0.4608838195800781
1682364401575935500,4.052935546875,-0.19785072278678417,0.6889590002387762,-0.03498538866341114
1682364401596062700,4.073062744140625,-0.4148696719020605,0.949205973444879,0.8014911544412374
1682364401616189700,4.093189697265625,0.08289455630779266,0.18407938706576824,0.5191957232952118
1682364401636316400,4.11331640625,0.8069090878367423,-0.07740443445891142,0.09706102882623673
1682364401656443600,4.133443603515625,0.8698042276889085,0.6482473428830504,-0.6600257512211799
1682364401676570600,4.153570556640625,0.6985609413206577,0.5974713876307011,-0.629389205417037
1682364401696697600,4.173697509765625,0.2694146145239472,-0.17919921380877493,-0.871235721796751
1682364401716824600,4.193824462890625,-0.269245395436883,-0.5216539301022887,-0.8357681025743484
1682364401736951600,4.21395166015625,-0.46202948248386383,-0.22472996188402175,-0.7294201899647712
1682364401757077800,4.234077880859375,-0.50264703181535,0.28515315866470337,-0.65681789509058
1682364401777204500,4.25420458984375,-0.4700885780379176,0.5236810520157218,-0.5539110628455877
1682364401797331500,4.27433154296875,-0.49546062744259833,1.0386901372760533,-0.661679948168993
1682364401817458700,4.294458740234375,-0.6513742427319288,1.3067308330982923,0.18130466165542602
1682364401837585700,4.314585693359375,0.440376453602314,0.5853560024231672,0.3204091809630394
1682364401857712400,4.33471240234375,1.440482300940156,-0.2571332250997424,0.2175385890752077
1682364401877839600,4.354839599609375,0.8217489295721053,-0.3102849695727229,1.1382196020424364
1682364401897966600,4.374966552734375,0.8613532102078199,-0.4573877941578626,1.8701386230856178
1682364401918093600,4.395093505859375,1.1398328824579715,-0.7278811438292264,1.3167103753209113
1682364401938220500,4.415220458984375,1.4164268870919943,-0.3744134506121278,-0.18495792346596718
1682364401958347500,4.435347412109375,1.7147358799278736,-0.29902561667263505,-0.8801923507124185
1682364401978474500,4.455474609375,1.7097464010775087,-0.23283465014547108,-0.5842664536207914
1682364401998601700,4.475601806640625,0.6399672980546951,-0.38155309323370457,-0.018512977290153502
1682364402018728400,4.495728515625,-0.43713644876778124,0.0352004927188158,-0.5463526102900504
1682364402038855700,4.515855712890625,-0.7369359724223613,-0.05065875861346721,-0.9063701635420321
1682364402058982700,4.535982666015625,-0.7518991482764482,-0.22209026103019713,-0.5192863241881132
1682364402079109600,4.556109619140625,-0.30136604231894015,0.05793868648856878,0.2353016247808933
1682364402099236600,4.576236572265625,0.11093699396550655,0.5428197599887847,0.5335667784750461
1682364402119363600,4.596363525390625,0.18129297121763227,0.6016074645221233,0.6215004979938268
1682364402139490600,4.616490478515625,0.1557598860323429,0.27688480427414175,0.6489537375867367
1682364402159616000,4.636615966796875,0.047669513669610024,0.3134957483127713,0.46676001813709733
1682364402179743000,4.656742919921875,-0.11238368564248084,0.2981803980201483,0.5910159278810024
1682364402199870000,4.676869873046875,-0.27729835351109505,0.44554070449769495,0.25273966631591316
1682364402219997000,4.696996826171875,-0.38658115052878855,0.3710287766098976,0.36041152100563045
1682364402240124000,4.7171240234375,-0.24929858595132826,0.1965805567204952,0.4070622130215168
1682364402260251100,4.737251220703125,-0.003922726401686668,0.2014937554642558,0.2186748996287584
1682364402280377900,4.7573779296875,0.18361176955401895,-0.0001654196947813034,-0.044832828938961025
1682364402300504800,4.7775048828125,0.12539689647257327,-0.02703589096367359,-0.29554303525388237
1682364402320632000,4.797632080078125,-0.19791209758520126,0.029021511822938918,0.0342418768197298
1682364402340759000,4.817759033203125,-0.4226134178966284,0.011738953110575675,0.2446212417900562
1682364402360886000,4.837885986328125,-0.3657651569932699,0.03609334990531206,0.24432664275765417
1682364402381013000,4.858012939453125,-0.13196926060020922,-0.1537318873360753,-0.33030981273055077
1682364402401140000,4.878139892578125,-0.39516368543505664,0.07837357175201178,-0.5154401701539755
1682364402421267000,4.898266845703125,-0.7234346858143806,0.07943798611313105,-0.10878069271445273
1682364402441394200,4.918394287109375,-0.3869371243596077,-0.10001052628159522,0.06577624824643134
1682364402461521000,4.93852099609375,0.3938941038906574,-0.47314358169436455,-0.39028701930940146
1682364402481647900,4.95864794921875,0.711139852386713,-0.3045473027035594,-0.3844973299920559
1682364402501775000,4.978775146484375,0.6501625288546085,0.022101649431884286,0.01923895347714424
1682364402521902000,4.998902099609375,0.23400632427334783,0.0930818960621953,0.2836795789808035
1682364402542028800,5.01902880859375,0.08613543792515993,-0.06833148568719626,0.09429390220046042
1682364402562156000,5.039156005859375,-0.11149667367488145,-0.18112813604474068,-0.03633504970669746
1682364402582283000,5.059282958984375,-0.03474485790580511,-0.024789573341608046,-0.17819149807095527
1682364402602410000,5.079409912109375,-0.16496435222923755,0.0875724849909544,-0.1630365990370512
1682364402622537000,5.099536865234375,-0.15454495728462933,0.005285831448435783,0.37399464067816734
1682364402642664000,5.119663818359375,0.010591828902065753,0.14893179357796907,0.3438800729215145
1682364402662791000,5.139791015625,-0.04278934041261673,0.2549912446349859,0.37383740428984163
1682364402682918100,5.159918212890625,-0.3707791857630014,0.2850631422936916,0.34305823514461514
1682364402703044900,5.180044921875,-0.5835363857805729,0.11832096673697233,0.26076222925186154
1682364402723171800,5.200171875,-0.20617372997403144,0.15271306568235157,0.40906946119070053
1682364402743299000,5.220299072265625,-0.35122137559503314,0.21010084028989076,-0.18097557583153248
1682364402763426000,5.240426025390625,-0.6045043550074101,-0.060437225306034084,-0.3922422450304031
1682364402783552800,5.260552734375,-0.3671791154444217,-0.17266776621341703,-0.22724106792211532
1682364402803680000,5.280679931640625,-0.09913432796895504,-0.1901744890704751,-0.4338450060069561
1682364402823807000,5.300806884765625,-0.07821721214652061,-0.35059418360739947,-0.7391285140305757
1682364402843934000,5.320933837890625,0.013168401391804217,-0.4708940492019057,-0.5767407342910766
1682364402864061000,5.34106103515625,-0.02925795092731714,-0.37750440236479044,-0.2665302912592888
1682364402884188000,5.36118798828125,0.046458092053234576,0.07037614325731992,0.20498656601607798
1682364402904315000,5.38131494140625,0.17248773347139357,0.25239859779328105,0.5259890366971492
1682364402924442000,5.401442138671875,0.3098690822482109,0.38475422736257314,0.6633084261536598
1682364402944567800,5.42156787109375,-0.007630641008913516,0.3298404416531324,0.421312272170186
1682364402964695800,5.44169580078125,-0.30737171247452494,0.380187065577507,0.362061041778326
1682364402984822000,5.461822021484375,-0.43771191056817765,0.3613330197647214,0.4754734859466552
1682364403004949000,5.481948974609375,-0.2731146380856633,0.47285132074952124,0.6321084012478589
1682364403025076000,5.502075927734375,-0.1649491546601057,0.361259077745676,0.3945388315349817
1682364403045203000,5.522202880859375,-0.1364981362015009,0.12296265506297349,0.13439970261752604
1682364403065330000,5.542329833984375,-0.10182546674907207,-0.03945435077100992,0.12851415171027183
1682364403085457200,5.56245703125,-0.10392711520344018,0.015097908149659632,0.2641886965692043
1682364403105583900,5.582583984375,-0.12213497206717729,0.0157376673579216,0.13060440198779105
1682364403125710800,5.6027109375,-0.08754296663552522,-0.03619710254073143,-0.23850363569259642
1682364403145838000,5.622838134765625,-0.06084872871637344,-0.20454086807519195,-0.06452011070549488
1682364403165964800,5.64296484375,-0.010526362450420856,-0.29290742605328557,-0.0841126999258995
1682364403186091800,5.663091796875,-0.1523836875975132,-0.07951338943690062,0.11312485939860344
1682364403206219000,5.683218994140625,-0.33436025716513396,-0.13059271154999733,0.27534605039954185
1682364403226345700,5.703345703125,-0.37579876749068497,-0.26030717896074057,-0.06199029996693134
1682364403246473000,5.723472900390625,-0.5902718315154314,-0.2168707728162408,-0.236133983951807
1682364403266600000,5.743599853515625,-0.48777036520093675,-0.13998919318765402,-0.02537935592830181
1682364403286727000,5.763726806640625,-0.32555677298456426,0.1109568677097559,0.09191548263132572
1682364403306854000,5.78385400390625,-0.42544718001782894,0.33278467841148374,0.7078700369358062
1682364403326980900,5.80398095703125,-0.4378749921754002,0.5831023782774806,1.0670768583267927
1682364403347107800,5.82410791015625,-0.4584527930408716,0.5914613335609435,0.9149825090646744
1682364403367235000,5.844235107421875,-0.35436522657871244,0.39284751744717356,0.5075526317745447
1682364403387361800,5.86436181640625,-0.20973902124017477,0.3213099291950464,0.2609527833878994
1682364403407488800,5.88448876953125,-0.2482026074081659,0.28915362647771836,0.2806716293364763
1682364403427616000,5.904615966796875,-0.04584755893945694,0.24348200862705707,0.1981365539908409
1682364403447743000,5.924742919921875,0.2889595652103424,0.11420213324129581,0.04225333383977413
1682364403467869700,5.94486962890625,0.3912359905973077,-0.05192746337503194,-0.0816249747633934
1682364403487997000,5.964996826171875,0.1653811163365841,-0.07155044773370027,-0.36879590299129483
1682364403508124000,5.9851240234375,0.08652122237235307,0.10064911644607782,-0.18647943394482136
1682364403528251000,6.0052509765625,0.3408639399707317,0.0005772153660655021,-0.17181494877636433
1682364403548377900,6.0253779296875,0.5318780947357415,-0.2092553293764591,-0.4957143099427223
1682364403568504800,6.0455048828125,0.46582595215737815,-0.3569964518651366,-0.5435621027886868
1682364403588631800,6.0656318359375,0.1893658030360937,-0.2940817305296659,-0.5174263755351305
1682364403608759000,6.085759033203125,-0.07822890258431434,0.045723055776953694,-0.34996903744637964
1682364403628885800,6.1058857421875,-0.082082655403018,-0.03949965121746063,-0.16972469849884508
1682364403649012700,6.1260126953125,0.12039397361874579,-0.16379793879836796,-0.2004635356336832
1682364403669140000,6.146139892578125,-0.22920184660106896,-0.104127021689713,-0.1709960336089134
1682364403689267000,6.166266845703125,-0.3161135295957327,0.23503858993053434,0.12702362089157104
1682364403709393700,6.1863935546875,-0.2553618315130472,0.32129063997268675,0.3591606441617012
1682364403729521000,6.20652099609375,-0.1345426182195544,0.27193828778266904,0.3847182792663574
1682364403749648000,6.22664794921875,-0.23333587766587732,0.03347761444896459,-0.18232699044048786
1682364403769774800,6.24677490234375,-0.1648977167338133,0.026676117740571496,-0.09972177246809005
1682364403789902000,6.266902099609375,0.07817921822369098,0.2685503989100456,0.24574293929636476
1682364403810028800,6.28702880859375,0.2275797983571887,0.25614713667184114,0.6972744086414575
1682364403830155800,6.30715576171875,0.38220454287976025,0.2691243994057178,0.5060363819926977
1682364403850283000,6.327282958984375,-0.13620499847382306,0.08950783696770667,-0.011392916151881217
1682364403870410000,6.347409912109375,-0.4631345211163163,0.045347792723774906,0.17796937975287436
1682364403890536700,6.36753662109375,-0.30695787097662686,0.2413774375632405,0.30628070236742494
1682364403910664000,6.387663818359375,0.014357026654481887,0.2650567115753889,0.5061182150572539
1682364403930791000,6.407791015625,0.18092472242712973,0.21521979073882103,0.028953707283735274
1682364403950918000,6.42791796875,-0.143236212284863,-0.08227379406094551,-0.1412473765552044
1682364403971044900,6.448044921875,-0.270903391776979,-0.04689414538294077,-0.06931026759147643
1682364403991171800,6.468171875,-0.2267731581494212,-0.06751373956352472,0.09904723420739173
1682364404011298800,6.488298828125,0.10909867262244224,0.06949614555239678,0.3557937980771065
1682364404031426000,6.508426025390625,0.20354162790477276,0.06691197427809238,0.1269336045205593
1682364404051552800,6.528552734375,-0.4137777850121259,-0.23423984076827764,-0.5675444514006376
1682364404071679700,6.5486796875,-0.32965310238748785,-0.2517854343309998,-0.32668928414583204
1682364404091807000,6.568806884765625,-0.0009434183299541472,0.055927638927102084,0.025831191349029538
1682364404111934000,6.588933837890625,0.2640738380178809,0.22305296858251095,0.4179156154692173
1682364404132060700,6.609060791015625,0.03345569487810135,0.3434276529788971,0.45431846971511836
1682364404152187600,6.629187744140625,-0.5293915386170148,0.2838116809278726,0.2541255677163601
1682364404172314400,6.649314453125,-0.7165960719659924,0.2751709860935807,0.18677870915234088
1682364404192441300,6.66944140625,-0.2720493469417095,0.4097466297999024,0.3348118003249168
1682364404212568600,6.689568603515625,0.3573562250882387,0.30159809750914574,0.24682079766094683
1682364404232695600,6.709695556640625,0.41171471500247714,0.1646568937152624,0.2989630728304386
1682364404252822300,6.729822265625,0.09469751456528902,0.08520487907677889,0.2679506794512272
1682364404272949500,6.749949462890625,-0.2529170687094331,0.02961567832380533,0.03070142773389816
1682364404293076500,6.770076416015625,-0.2609527833878994,-0.09201572813540697,-0.16916589557230471
1682364404313203500,6.790203369140625,0.18197043208777902,-0.09282938260585069,-0.508999323451519
1682364404333330400,6.810330322265625,0.10745908872187138,-0.21565935119986532,-0.46642450257241724
1682364404353457400,6.83045751953125,-0.019090484917163846,-0.09550093990266323,-0.21395839250087736
1682364404373584400,6.85058447265625,-0.20929683043062686,-0.03305179025232792,-0.15597908174097538
1682364404393711600,6.870711669921875,-0.04282441172599792,-0.01667231785953045,-0.17203940518200397
1682364404413838300,6.89083837890625,0.08784136506021022,0.03852379192262888,-0.2958697829902172
1682364404433965600,6.910965576171875,0.18184212953299284,0.16243278792500496,0.06825403653681278
1682364404454092500,6.931092529296875,0.17705021908134222,0.1063204400807619,0.332204248175025
1682364404474219500,6.951219482421875,0.25587270364463327,0.08888707472085952,0.03313070070743561
1682364404494346500,6.971346435546875,0.3747682553991675,0.17130495342761276,-0.10429916338622569
1682364404514473500,6.991473388671875,0.3398193993538618,0.10686375317722559,0.24443185669779777
1682364404534600400,7.011600341796875,0.33017683400064707,0.05444821402430534,0.3426858947008848
1682364404554727700,7.031727783203125,0.05783873324543237,0.35613194399029013,0.1667529892116785
1682364404574854400,7.0518544921875,-0.22950784381031988,0.02319295179992914,0.06753332104682921
1682364404594981400,7.0719814453125,-0.46262364898473024,-0.10904694243520498,-0.4378074798971414
1682364404615108600,7.092108642578125,-0.5120201325774193,-0.09462707967758179,-0.13565057946145534
1682364404635235600,7.112235595703125,-0.1695586942821741,0.16483751097917557,0.21933599388599395
1682364404655362300,7.1323623046875,-0.03879325651377439,0.2548871997386217,0.45159342866539953
1682364404675489500,7.152489501953125,-0.3723404437303543,0.04921469728499651,0.3952934492945671
1682364404695616500,7.172616455078125,-0.6790186209827661,-0.01000116953253746,-0.10276362438201904
1682364404715744500,7.19274462890625,-0.5776993501901626,-0.04395604610443115,-0.012737901020050048
1682364404735871500,7.21287158203125,-0.18612375237494705,0.038841187308728695,0.14385375966131686
1682364404755998500,7.23299853515625,0.10898527537584304,0.12578209639787674,0.2488005733013153
1682364404776125400,7.25312548828125,0.13994272369742392,0.21558920857310293,0.30387071861624715
1682364404796252400,7.27325244140625,-0.3991732133373618,-0.0652487172409892,-0.07559387790560722
1682364404816379600,7.293379638671875,-0.48282618679702277,-0.11942016015052795,-0.11192425143718719
1682364404836506400,7.31350634765625,0.007140519404411316,-0.02971241669654846,-0.004162380376458168
1682364404856633300,7.33363330078125,0.5389078472420573,-0.08248188385367393,0.04111176258921623
1682364404876760600,7.353760498046875,0.5437415510088205,0.001174304476380348,0.23940847557783126
1682364404896887600,7.373887451171875,0.10148059883415698,0.20511896022409198,0.2671954771697521
1682364404917014500,7.3940146484375,0.0071007719159126275,0.4422308492973447,0.62565352602005
1682364404937141500,7.4141416015625,-0.016936814014613628,0.3886255158379674,0.6842652894645929
1682364404957268500,7.4342685546875,-0.11615882026702165,0.37051731995642184,0.3647100949823856
1682364404977395500,7.4543955078125,-0.450512647691369,0.21491934648752212,0.24033318920731542
1682364404997522700,7.474522705078125,-0.6936430664017796,0.10831979720443487,-0.21878362070024013
1682364405017649400,7.4946494140625,-0.8317176581397652,0.10533435165286063,-0.18874094913601874
1682364405037776400,7.5147763671875,-0.675115183803439,-0.2285717320039868,-0.24016133977174758
1682364405057903600,7.534903564453125,-0.08268880460262298,-0.3038338937371969,-0.5739473041802644
1682364405078030600,7.555030517578125,0.07116817041784525,-0.2106751330465078,-0.12967092052996157
1682364405098157300,7.5751572265625,-0.03246083862185478,-0.05707154826521873,0.04755085572600364
1682364405118284500,7.595284423828125,-0.07530921574532985,0.011986498130857944,0.16251111385822295
1682364405138411500,7.61541162109375,0.14732991133928297,-0.10190554624795913,-0.01798106237053871
1682364405158539300,7.635539306640625,0.16640549094825982,-0.2830918422207236,-0.41856268120110035
1682364405178666200,7.655666259765625,-0.10507803880423307,-0.21783581845611333,-0.33061785576641556
1682364405198793500,7.67579345703125,-0.2721519305333495,-0.17324848871082066,-0.04482815276384353
1682364405218920400,7.69592041015625,-0.49676732612699265,-0.1650841792166233,-0.05731354032754898
1682364405239047200,7.716047119140625,-0.4297913467019796,-0.10427958190292119,-0.09866612593531608
1682364405259174400,7.73617431640625,-0.4716951364517212,-0.14179916521906852,-0.2705383578568697
1682364405279301400,7.75630126953125,-0.30691198600828645,-0.07236497898697852,0.2655348504811525
1682364405299428400,7.776428466796875,-0.12538988220989702,0.36109804196506734,0.5591431182801723
1682364405319555300,7.796555419921875,-0.1492614639237523,0.572317949412763,0.9569710544884205
1682364405339682300,7.816682373046875,-0.23428163408339023,0.6958817852392792,1.3903905285596847
1682364405359809300,7.836809326171875,-0.3807797707736492,0.750599756115675,0.9155676154762505
1682364405379936500,7.8569365234375,-0.5165364409580826,0.5720946620509028,0.7198767010718584
1682364405400063200,7.877063232421875,-0.4861187986016273,0.4409355487897992,0.5950690026640891
1682364405420191200,7.897191162109375,-0.27350919036120175,0.2767982950344682,0.41623394599258895
1682364405440318500,7.917318359375,0.08555354638397693,-0.0017567805394530294,0.08012450707256794
1682364405460445400,7.937445556640625,0.1473603064775467,-0.13690408665388823,-0.12043489015102386
1682364405480572400,7.957572509765625,0.0479819406196475,-0.26546558463722464,-0.3616565526306629
1682364405500699400,7.977699462890625,-0.20177549501508474,-0.29376112027317286,-0.38562837984859943
1682364405520826400,7.997826416015625,-0.3489534306630492,-0.25565438471883534,-0.18051555710434913
1682364405540953300,8.017953369140624,-0.11869213813692331,-0.2285904367044568,-0.2544453011900186
1682364405561080600,8.03808056640625,0.1880073741644621,-0.10523878232389688,-0.32828853603601454
1682364405581207300,8.058207275390625,-0.08126958545446396,-0.0770870390728116,-0.02554009944796562
1682364405601334300,8.078334228515626,-0.5164201211020351,0.047912090253829955,-0.022629764959216116
1682364405621461500,8.09846142578125,-0.3702247667506337,0.13700900833308696,0.14050269566774368
1682364405641588500,8.11858837890625,0.12204758604466914,0.1659261829987168,0.04443593857586384
1682364405661715200,8.138715087890626,0.2882522937238216,0.1788648672878742,0.09542612110078334
1682364405681842400,8.158842529296875,0.12842062820792197,0.15911007324308157,0.19404665432870388
1682364405701969400,8.178969482421875,-0.10977379540503024,0.211482357776165,0.14265490526556968
1682364405722096400,8.199096435546876,-0.015872107392549514,0.21305881331264973,0.3097445790857076
1682364405742223400,8.219223388671875,0.08780395565927028,0.1377113113835454,0.05594400554001331
1682364405762350300,8.239350341796875,-0.06830781255066394,0.13362258076518774,-0.11803308970630168
1682364405782477300,8.259477294921876,-0.042779695801436896,0.14622691853344438,0.10070610733032226
1682364405802604500,8.2796044921875,0.054204760657250876,0.13740093026012182,0.3698299222141504
1682364405822731300,8.299731201171875,0.14040683407783508,0.15344927100241185,0.4717418982028961
1682364405842858200,8.319858154296876,0.2812935606271028,0.21488924361020326,0.11731529682576655
1682364405862986200,8.339986328125,0.3678255966544151,0.14494623107314109,0.12723229520618914
1682364405883112400,8.360112548828125,0.1485229205161333,0.10512450829446315,0.4247288026154041
1682364405903239200,8.3802392578125,-0.03979045085757971,0.10530541781932115,0.3224298731356859
1682364405923366400,8.400366455078125,0.2488113869562745,0.24397592962384224,0.044326632982492446
1682364405943494400,8.420494384765625,0.14097645065933465,0.08613426888138055,-0.223368025881052
1682364405963621400,8.440621337890626,-0.0340676892966032,-0.11493512369096279,-0.1042553242444992
1682364405983748400,8.460748291015625,-0.1695990262925625,-0.12253244695216417,-0.2109422595500946
1682364406003875300,8.480875244140625,-0.23804069435596464,-0.23520196379870176,-0.407645565867424
1682364406024002300,8.501002197265626,0.13982961871176958,-0.06538052692711353,-0.4230331046134233
1682364406044129300,8.52112939453125,0.24510844078511,-0.32490035490244623,-0.22233634474575517
1682364406064256500,8.541256591796875,0.01239361762702465,-0.304262640543282,-0.21611936992704867
1682364406084383200,8.56138330078125,-0.16940116563290356,-0.0010734744504094123,-0.13243863167762757
1682364406104510200,8.58151025390625,0.007334872932732105,0.13617811046689748,0.06850012025237083
1682364406124637400,8.601637451171875,0.14339870937019586,0.29067192208617926,0.3463333112925291
1682364406144764400,8.621764404296876,0.07321195120513439,0.10190876111835241,0.45600130823552604
1682364406164891400,8.641891357421875,-0.3068962039172649,0.1399906544923782,0.19267945762872696
1682364406185018600,8.6620185546875,-0.6324667131662368,0.27833880247473713,0.1599818876415491
1682364406205145600,8.6821455078125,-0.23427578886449335,0.17083704365491867,-0.0422065720885992
1682364406225272300,8.702272216796874,0.13182371464967726,-0.03153086429536343,0.023296119913458823
1682364406245399600,8.722399658203125,0.10492080241590737,-0.05249328056424856,0.2490443189293146
1682364406265526500,8.742526611328126,-0.3596984043002128,0.15742811150550842,0.207853061363101
1682364406285653500,8.762653564453124,-0.4843365913599729,0.1466866449996829,0.3307774302423
1682364406305780500,8.782780517578125,-0.11134206763505936,-0.043645664981007574,-0.06450958931148051
1682364406325908500,8.802908447265626,-0.13204846331626177,-0.18110241708159447,-0.1787695902198553
1682364406346035500,8.823035400390625,-0.21993571334481238,-0.02301730297207832,0.008396656945347785
1682364406366162400,8.843162353515625,-0.41036768430769444,0.07202829437851906,0.15521394258737564
1682364406386289700,8.86328955078125,-0.5579243901401758,0.16599895597398281,0.26352234161496163
1682364406406416400,8.88341650390625,-0.06255611715614795,0.12727730339169502,0.06668108813166618
1682364406426543400,8.90354345703125,0.12064531803131102,-0.06880202580839395,-0.013214286360144614
1682364406446670600,8.923670654296876,0.0323947876483202,-0.10107815551310777,-0.028251111972332
1682364406466797600,8.943797607421875,-0.13445143280476332,-0.11215338401794434,0.05362520720362663
1682364406486924300,8.96392431640625,0.009058335724473,-0.004808569325506687,0.0006283610314130782
1682364406507051500,8.984051513671876,0.03404635424762964,0.16201982320994138,0.0799777920782566
1682364406527178500,9.004178466796875,-0.17659779913872478,0.23218290823847054,0.3223714209467172
1682364406547305500,9.024305419921875,-0.34237785166502,0.26549422620981933,0.43394612829387186
1682364406567432700,9.0444326171875,-0.39015637866705655,0.2341147530838847,0.4191039484709501
1682364406587559400,9.064559326171874,-0.16775544425249098,0.22821897304356098,0.4169377103477716
1682364406607686400,9.084686279296875,0.18690555040240286,0.2067541602104902,0.0300070157289505
1682364406627813600,9.104813720703126,0.10765870294719934,0.09407675231844186,0.1422445708990097
1682364406647940600,9.124940673828124,-0.16781798809468745,-0.01572510013729334,0.13569324955940246
1682364406668068400,9.145068359375,-0.16409546044021844,-0.02439122167378664,0.047723289683461186
1682364406688195600,9.165195556640626,0.0007435118436813354,0.08765431805551052,-0.039517771396040915
1682364406708322600,9.185322509765625,0.02648351777791977,0.13668138381391762,-0.004001636856794357
1682364406728449500,9.205449462890625,-0.2432736265733838,0.09742956987768411,0.14922259321808815
1682364406748576800,9.22557666015625,-0.4939274265259504,-0.002760696884989738,0.042839024773240086
1682364406768703500,9.245703369140625,-0.7138119942054152,-0.09908785847872495,-0.33567338559031484
1682364406788830500,9.26583056640625,-0.615179770539701,-0.028735388357937333,-0.32309447452425955
1682364406808957700,9.285957763671876,-0.4296232966586947,-0.11568448075354099,-0.28517946214973927
1682364406829084700,9.306084716796875,-0.16972703658640384,-0.09021540071517228,-0.16262158849537373
1682364406849211400,9.32621142578125,-0.3659212243378162,-0.11662205386459827,-0.05534896225631237
1682364406869338600,9.346338623046876,-0.6854544992491602,-0.0046039866641163826,-0.25339082370102406
1682364406889465600,9.366465576171874,-0.2833864412531257,0.24722674811333417,0.011682254487276077
1682364406909592600,9.386592529296875,0.3530369005843997,0.26436843705028296,0.558379148170352
1682364406929719600,9.406719482421876,0.09979805257469415,0.3204503897562623,0.6070084467828274
1682364406949846500,9.426846435546874,-0.26875731965899463,0.5409267858490348,0.5346452213615178
1682364406969974500,9.446974609375,-0.1806187252178788,0.40597178743630646,0.2048638164192438
1682364406990101500,9.4671015625,0.3389493385210633,0.11108750835210084,0.07209317630827426
1682364407010228700,9.487228759765625,0.628479104834795,0.054831075862050056,0.19410452199578285
1682364407030355500,9.50735546875,0.44441345403343435,0.16000263816863297,0.1251993280738592
1682364407050482400,9.527482421875,0.3290302943140268,0.16516192062795162,-0.2404039163559675
1682364407070609700,9.547609619140625,0.6937564636483788,-0.10836509765088558,-0.5402671528965235
1682364407090736600,9.567736572265625,0.691046327906847,-0.32376082947850227,-0.3359633084475994
1682364407110863400,9.58786328125,0.49137949560880656,-0.16698679796755314,-0.2588379831910133
1682364407130990600,9.607990478515624,0.6125894617855548,-0.14390432080477475,-1.3474042042702437
1682364407151117600,9.62811767578125,1.8163284147039054,-0.6100783557474613,-2.5978099235564467
1682364407171244000,9.648244140625,3.194315096503496,-0.7017217434391378,-1.9891326667785643
1682364407191371000,9.66837109375,3.6341660649269816,-0.25008798276335,-1.090495143315196
1682364407211497700,9.688497802734375,2.6133590826049446,0.03745587043017149,-0.9365040205210446
1682364407231625700,9.708625732421876,1.6653151386767624,0.2703168240606785,-1.691692857992649
1682364407251753000,9.7287529296875,2.0643869374662636,0.26572423557341096,-1.6440408799797295
1682364407271880000,9.7488798828125,3.053933981388807,0.6966247125610708,-0.9398848951309918
1682364407292007000,9.7690068359375,3.4901562379211186,1.1043903976768255,-0.4481558554321527
1682364407312134000,9.7891337890625,3.6798388518214225,1.2558026098936796,-0.8369237023502588
1682364407332260900,9.8092607421875,4.121217760464549,0.8747864000156521,-1.2463082208395004
1682364407352387800,9.829387939453126,4.663859241276979,1.1932722117006778,-1.401561326393485
1682364407372515000,9.84951513671875,4.404003020954132,1.5837059460043905,-1.5457482635319233
1682364407392641800,9.869641845703125,3.512172254896164,2.161516355353594,-1.7813859883993863
1682364407412768800,9.889768798828126,2.875432686716318,3.323945685023069,-1.9545050055116413
1682364407432896000,9.90989599609375,2.245155592548847,3.6727760738283393,-1.2870681012511254
1682364407453023000,9.93002294921875,1.7635107244908808,3.852322201378643,-1.9647341385811565
1682364407473151000,9.95015087890625,2.567652101179957,4.031615815472603,-3.4077678775697944
1682364407493277700,9.970277587890624,4.101562627401948,4.6167517454043026,-4.156248157313466
1682364407513405000,9.990405029296875,5.6341731769412755,6.11328531165123,-3.586472001338005
1682364407533532000,10.010531982421876,6.490864240556955,8.044384307134152,-2.9818618478685615
1682364407553659000,10.030658935546874,6.794725022301077,8.38165343748331,-2.71919758438766
1682364407573785900,10.050785888671875,6.9188745490610595,8.031649913245438,-2.8163743485480546
1682364407593912800,10.070912841796876,6.993938850134611,9.386074225410818,-2.6676626274615525
1682364407614039800,10.091039794921874,6.445950163075327,10.724344690632819,-2.616879365685582
1682364407634167000,10.1111669921875,6.324841903707385,11.48008356320262,-2.776989848142862
1682364407654294000,10.1312939453125,6.716992963322997,12.363211967366933,-3.4503386067956683
1682364407674420700,10.151420654296874,7.384548525527119,13.729697888725996,-3.9433775600492953
1682364407694548000,10.1715478515625,6.116554542580246,16.670303597098588,-3.754716105890274
1682364407714676000,10.191676025390626,3.9772973653078076,18.63377341483235,-4.444297037419677
1682364407734803000,10.211802978515625,2.9666923357874153,19.679624529778955,-6.0928825750917195
1682364407754929700,10.2319296875,2.2266917150974272,21.243618059575557,-6.675058778434991
1682364407775057000,10.252056884765626,0.9077432054609059,25.161871699762344,-4.9498599566817285
1682364407795183900,10.272183837890625,-3.61309463532567,28.513190544879436,-2.805179585316777
1682364407815310800,10.292310791015625,-7.371763862755894,27.786777135515212,-5.174220500731468
1682364407835438000,10.31243798828125,-8.112524946424365,26.950218759346008,-6.155924429938197
1682364407855564800,10.332564697265624,-7.730438769227266,26.82994285914898,-5.314080806842446
1682364407875691800,10.35269189453125,-9.771911279574036,26.713789007318017,-5.29907788349986
1682364407895819000,10.372819091796876,-11.523287914156914,25.682881779003143,-5.490538028466701
1682364407915947000,10.392947021484375,-12.35672728152275,24.017048169410227,-6.769372554379701
1682364407936074000,10.413073974609375,-13.104903609883785,21.988598222243784,-6.344124696326255
1682364407956201000,10.433200927734376,-14.130163187700509,19.88696847257614,-3.5982507019370793
1682364407976328000,10.453327880859375,-14.59924784939289,17.76979277873039,-1.2401976290047168
1682364407996455000,10.473454833984375,-13.332828568416833,15.40556657012105,-0.0037350948750972746
1682364408016582000,10.493581787109376,-11.526046857476233,13.37516782697439,1.57137954839468
1682364408036708900,10.513708984375,-9.93736663019061,11.27381397163868,2.7038497931301593
1682364408056835800,10.5338359375,-8.802518550407886,9.870050751286744,3.9129040958523746
1682364408076963000,10.553963134765626,-9.002778672423958,8.446748133206366,4.859522683152556
1682364408097091000,10.574091064453125,-9.450962584906815,5.953548923203349,5.158078344225883
1682364408117218000,10.594218017578125,-9.14498466487825,4.720688212957978,6.61303165358901
1682364408137344800,10.6143447265625,-11.739238357257843,5.626445213037729,8.339290798050165
1682364408157471700,10.6344716796875,-17.359968115258216,6.380638609731197,10.05637411788702
1682364408177598700,10.6545986328125,-18.040765436351297,5.362324321007728,10.736257246744632
1682364408197725700,10.6747255859375,-15.502052429407835,3.943609322978556,11.621514479631184
1682364408217853000,10.69485302734375,-13.187770109140873,3.110526221704483,12.103142981076239
1682364408237979600,10.714979736328125,-12.602899844408034,2.963953850734234,11.885082413953542
1682364408258106600,10.735106689453126,-12.602891661101578,2.72677795651406,10.43189436069727
1682364408278233900,10.75523388671875,-11.730601461815834,1.8628847064346075,8.410068215584754
1682364408298361900,10.77536181640625,-11.18093578145504,0.7998888338111341,5.3790322947025295
1682364408318488800,10.79548876953125,-10.413271493291854,1.149937658495456,4.152904107582569
1682364408338615600,10.815615478515625,-11.09400802410841,2.652644506549835,2.825277201449871
1682364408358742800,10.83574267578125,-13.384730605089663,3.9972102725237604,1.5655319914102552
1682364408378869800,10.855869873046874,-12.064905897140502,4.8155467633038755,0.36436756515502927
1682364408398996700,10.875996826171875,-9.356320892181992,5.611100928911567,-1.3063070547282696
1682364408419123700,10.896123779296875,-8.383588204938173,6.598457184791565,-2.6157909859269854
1682364408439250700,10.916250732421876,-8.745627034884691,8.51600813191533,-2.4923668508321044
1682364408459377700,10.936377685546875,-7.434426947417855,9.03030147012174,-2.7598201021552082
1682364408479505700,10.956505615234375,-4.788539806173741,8.681541223943233,-4.3056291559636595
1682364408499633000,10.9766328125,-3.069255176900327,9.363554350566863,-4.193493892124295
1682364408519759600,10.996759521484375,-3.2197493974894282,10.156563507866858,-4.358014007717371
1682364408539886600,11.016886474609375,-4.140289248420298,10.94950602967143,-4.925384271594882
1682364408560013800,11.037013916015624,-3.425040499410033,10.712654252839087,-6.174143977239727
1682364408580140800,11.057140869140625,-1.7033710208266972,9.898208339756726,-7.191456395444273
1682364408600267800,11.077267822265625,-0.3995987452730536,8.876175322771072,-7.480859028246998
1682364408620394800,11.097394775390624,-0.21555326047688722,7.47115830296576,-8.518874042740464
1682364408640521700,11.117521728515625,0.26628128493428227,6.783680481195449,-10.061861609387398
1682364408660649700,11.137649658203125,-0.14197101465463638,6.125699387544393,-10.719584344363213
1682364408680777000,11.15777685546875,-0.24583587827682493,6.115577221980691,-11.490173580062388
1682364408700903700,11.177903564453125,0.12444880196750163,6.400970619142055,-12.447059294354915
1682364408721030700,11.19803076171875,3.170161482977867,7.413403448611497,-11.594439425700902
1682364408741158000,11.218157958984374,2.6156787577241656,8.234381393811105,-9.696092945262789
1682364408761284900,11.238284912109375,1.8208423849970101,7.700734535837173,-11.587502319914101
1682364408781411600,11.25841162109375,2.720461905235052,6.771656281402707,-13.165560615420342
1682364408801538800,11.278538818359374,5.333018731546401,6.298203487628698,-11.13496430387497
1682364408821665800,11.298665771484375,5.412766806522011,6.4013482202827925,-7.523446124085783
1682364408841793800,11.318793701171876,4.471012025865912,5.800213633969426,-7.974274413597583
1682364408861920800,11.338920654296874,5.78222789542377,4.482825797778368,-10.283722737836838
1682364408882047700,11.3590478515625,8.057773950061202,3.872866099974513,-10.044925672155617
1682364408902174700,11.3791748046875,7.932540719717741,3.848303321126103,-7.50586545920968
1682364408922301700,11.3993017578125,6.256101544958352,4.186040653508901,-6.556122602409124
1682364408942429000,11.419428955078125,4.938637720921635,3.963111603567004,-7.992380563652515
1682364408962555600,11.4395556640625,7.0620941024720665,6.055307754456996,-11.268749673986434
1682364408982682600,11.4596826171875,7.976080586236715,12.673914577829837,-4.076755226142704
1682364409002810600,11.479810546875,8.885140134993195,11.360755757510661,8.268422195100785
1682364409022937900,11.499937744140626,6.465432862180471,6.913323929196595,1.6831230364374816
1682364409043064800,11.52006494140625,1.7856845623761415,4.981900524064899,0.036942660211026664
1682364409063191600,11.540191650390625,0.36422552633583544,5.5365995224177835,7.89576435598433
1682364409083318800,11.56031884765625,3.9632948511794206,3.1664772415071725,6.489314088505506
1682364409103445800,11.58044580078125,3.033527153176069,0.6805202577173709,2.7727093943446874
1682364409123572700,11.60057275390625,3.651017538745701,0.4939513919234276,4.812793957464397
1682364409143699700,11.62069970703125,3.707643389070034,-0.6862082402259111,2.7090169666349886
1682364409163826700,11.64082666015625,2.0632705006569623,-1.800879793420434,-1.0202426264375448
1682364409183954700,11.66095458984375,0.766476539683342,-2.8280215317219493,-3.1898759450122713
1682364409204081700,11.68108154296875,1.0468974091291428,-3.2283143967390058,-4.448213626341522
1682364409224209000,11.701208984375,0.1964054924145341,-2.2431652955144643,-3.2462992585018275
1682364409244335600,11.721335693359375,0.07318389415442943,-1.0748965921670197,-2.311770045185089
1682364409264462600,11.741462646484376,0.20637422098219393,-0.773766696691513,-1.8330466175317763
1682364409284589800,11.76158984375,0.06346300286799669,-0.579293341383338,-0.9721773914486169
1682364409304716800,11.781716796875,-1.7081567937985063,-0.0017307693153619766,-0.19712533112168312
1682364409324843500,11.801843505859376,-1.691519547252357,0.9150947372674941,1.2102046418011188
1682364409344971800,11.8219716796875,0.036388533459603786,1.391874629637599,1.291022391834855
1682364409365098800,11.8420986328125,-1.6816335285320878,1.4664607918053865,1.2167904499322175
1682364409385225700,11.862225830078126,-3.785409934839606,1.7915303657948969,0.8204577207177877
1682364409405352700,11.882352783203125,-3.5945033321022986,1.544948637586832,0.021297639572620392
1682364409425479700,11.902479736328125,-1.1111800578169524,1.8523305791944265,0.8468062139391899
1682364409445606700,11.922606689453126,1.6669214048296213,2.0512235045105216,1.1695365313261747
1682364409465734000,11.94273388671875,2.266680026614666,2.0127613796472548,0.6832493904203176
1682364409485862000,11.96286181640625,1.5856605872035026,2.019139097985625,-0.04247603667974472
1682364409505988900,11.98298876953125,1.4116203635931015,1.5842004515230654,-1.441063900220394
1682364409526115600,12.003115478515625,2.5187118369221686,1.5345377182096243,-0.4908405664265155
1682364409546242800,12.023242919921875,1.8034633801728486,2.0332377659648655,0.4388198718100786
1682364409566369800,12.043369873046874,1.7993682198137044,1.4542267486542462,-0.1481172623246908
1682364409586496800,12.063496826171875,1.182458556741476,1.0452356133967637,-1.028813470906019
1682364409606623700,12.083623779296875,-0.9192471807718277,1.1422282531619072,-0.738422996109724
1682364409626751700,12.103751708984374,-2.454696168607473,1.3444851019531487,0.3349380570530891
1682364409646878700,12.123878662109375,-1.7115245166659354,1.3452461494535206,-0.1182370878458023
1682364409667005700,12.144005615234375,1.2334323726534844,0.9004682460218667,0.04144786267578601
1682364409687133000,12.1641328125,1.2375615814127028,0.6898790376931428,0.5439478872358798
1682364409707259600,12.184259765625,-0.16153379325866699,0.9513567217379808,0.6208662917435169
1682364409727386600,12.20438671875,-0.9592717326462268,1.1558452751040458,0.8751122709691525
1682364409747513900,12.224513916015624,0.16204948769584296,1.4470207627981901,1.1698889980256557
1682364409767640800,12.244640869140625,1.1680243731975555,1.0851701489001513,0.31208091307878494
1682364409787768800,12.264768798828126,1.7948551263034342,0.4074573498189449,-0.4932189859956503
1682364409807895600,12.2848955078125,0.5406276567719877,0.17295009028613567,-0.31447979091405864
1682364409828022800,12.305022705078125,-1.080991109649837,0.18269640827476977,-0.1369984869390726
1682364409848149800,12.325149658203125,-1.7520868286788462,0.15662439390718935,-0.25536416960060593
1682364409868276700,12.34527685546875,-1.1869245962396264,0.39186230580210685,-0.12184534147083759
1682364409888403700,12.36540380859375,1.6446809314489363,0.40217034932672974,0.4667477431774139
1682364409908530700,12.38553076171875,2.009903944389522,-0.3491881162017584,0.22217618574798106
1682364409928657700,12.40565771484375,0.9641504445984959,-0.3590887479692697,-0.09031097004413605
1682364409948785700,12.42578564453125,-0.00019376900643110274,0.06385550931692123,0.4743669860094785
1682364409968913000,12.445912841796876,-0.0762593560770154,0.13498890068233013,0.6613754122644663
1682364409989039600,12.46603955078125,0.30337124466151,-0.2326964107185602,-0.44549160465896126
1682364410009166600,12.48616650390625,0.6256634628921747,-0.7546107453227042,-0.7355027247488498
1682364410029293800,12.5062939453125,1.0449065275728702,-0.6622223844826222,-0.12331482950150965
1682364410049420800,12.5264208984375,1.0158590045258402,0.23687749579548834,1.6555600528597831
1682364410069547800,12.5465478515625,0.021779285609722136,0.8433166182577609,1.5858698460400105
1682364410089674800,12.5666748046875,-0.4410989226579666,0.2662462136209011,-0.0435790294855833
1682364410109802800,12.586802734375,0.38993922878503795,-0.4121288487613201,-0.4597299733698368
1682364410129929700,12.6069296875,1.0245479224160312,-0.5981850888580084,0.3227899386197328
1682364410150057000,12.627056884765626,-0.007741992428898811,0.1599386330217123,1.034862103420496
1682364410170184700,12.647184814453125,-1.124180555295944,0.41951603640317914,0.0985346085101366
1682364410190311700,12.667311767578125,-1.0009753236487506,0.18363105877637861,-0.8607306943953037
1682364410210438400,12.6874384765625,-0.034061259555816646,-0.022971710264682768,-0.2310059734135866
1682364410230565600,12.707565673828125,0.3227309019088745,0.1241278994500637,0.901111220100522
1682364410250693600,12.727693603515625,-0.4786880640789866,0.43158524438142776,0.5955050559937953
1682364410270820600,12.747820556640624,-0.5296466824218631,0.45301381685733794,0.09588146365284919
1682364410290947600,12.767947509765625,0.517324668726325,0.36292613417506214,0.25749416736662384
1682364410311074600,12.788074462890625,0.535460044875741,0.27112404879033564,0.6246738673329353
1682364410331201500,12.808201416015624,-0.5900818619012832,0.1391939511567354,0.33933833783864975
1682364410351328500,12.82832861328125,-0.9010323096454143,0.030095278534293172,-0.2831225296199322
1682364410371456500,12.84845654296875,-0.09182663530409335,-0.002639700853824615,-0.28940087923705576
1682364410391583700,12.868583740234374,0.10612228716015815,-0.045619010880589485,0.11141571739315986
1682364410411710500,12.88871044921875,-0.49133682551085944,-0.10881751759350299,0.28955870014727114
1682364410431837400,12.90883740234375,-0.6849941882610321,-0.28679975682795045,-0.42867023371756074
1682364410451964700,12.928964599609374,-0.18799159207344054,-0.1708832208842039,-0.4507224910497665
1682364410472091600,12.949091552734375,0.5422115649625658,-0.12223463304936885,0.13523147726655005
1682364410492218400,12.96921826171875,0.20256547634899616,0.09729366853833198,0.8268827853292227
1682364410512346600,12.9893466796875,-0.4011225938394665,0.011916647765040396,0.1962631613343954
1682364410532473600,13.0094736328125,-0.28365970523655415,0.06854395939409733,-0.08001169434785843
1682364410552600600,13.0296005859375,0.17953969780951737,0.31737434331178666,0.42518356064558027
1682364410572727800,13.049727783203124,0.05375964723825454,0.4715151037096977,1.123249996447563
1682364410592854500,13.0698544921875,-0.7171037292271852,0.6673638390243053,1.1662065101206303
1682364410612981500,13.0899814453125,-0.4884045714512467,0.35296997282803055,0.19309680625796316
1682364410633108700,13.110108642578124,0.5439125236615538,0.009209726893901824,-0.012706336838006973
1682364410653236700,13.13023681640625,1.2303972427412866,-0.04131692977249622,0.5452051938205957
1682364410673363700,13.15036376953125,0.6547317364662886,0.20010639275908468,0.35549452286958694
1682364410693490400,13.170490478515624,0.09111907155662774,0.09622223991453648,-0.477823848465085
1682364410713617700,13.19061767578125,0.37346272575855255,-0.09279051190018653,-1.025630164694786
1682364410733744600,13.21074462890625,0.7441589094132185,-0.2631599380433559,-0.6308984409362077
1682364410753871600,13.23087158203125,0.3764116386920213,0.04667348836958408,0.32324703473746774
1682364410773999600,13.25099951171875,-0.34855858612656593,0.08931728283166884,0.2567524090886116
1682364410794126600,13.271126708984376,-0.27560616264045235,-0.2367658521145582,-0.2352677225112915
1682364410814253600,13.291253662109375,0.2353589079260826,-0.36256489964723587,-0.3318541195631027
1682364410834380500,13.311380615234375,0.3481669564604759,0.011401683980226516,0.36041619718074797
1682364410854507800,13.3315078125,-0.22127894464731215,0.25216625034213064,0.9331412660896777
1682364410874634500,13.351634521484375,-0.8274810434833169,0.07351940971910953,0.315310981041193
1682364410894761500,13.371761474609375,-0.48286184263229365,-0.19579437477886677,-0.3549935876101255
1682364410914889500,13.391889404296874,0.1658908194243908,-0.1665004757553339,-0.11271627859771251
1682364410935016700,13.4120166015625,-0.06026011517345905,0.3707487906247377,0.7764256867676973
1682364410955143700,13.432143798828125,-0.9250099820822477,0.5185334599941969,0.7613894456773996
1682364410975270400,13.4522705078125,-0.9733096103489398,0.20744915673732756,-0.04890694651007652
1682364410995397600,13.472397705078125,0.24243571444451809,-0.2823433619409799,-0.23385025692880151
1682364411015524600,13.492524658203125,1.030473513072729,-0.28132395576536656,0.32490649238228797
1682364411035652600,13.512652587890624,0.3305453750520944,0.15438976672291754,0.6575076309204101
1682364411055779600,13.532779541015625,-0.9822194775134324,0.5682797799378633,0.5529886873036622
1682364411075906600,13.552906494140625,-1.3928653942406177,0.3145604549348354,-0.37776597591042516
1682364411096033500,13.573033447265624,-0.5280389549642801,-0.05340893410444259,-0.22078151651918887
1682364411116160500,13.593160400390625,0.42940614677667616,-0.03152501907646656,0.7555074019014835
1682364411136287700,13.613287841796875,-0.041398178315162654,0.15172843855917453,0.6142255385547876
1682364411156415700,13.633415771484374,-0.7622510309427977,0.06836158856451512,-0.28940087923705576
1682364411176542000,13.6535419921875,-0.25048341182172296,-0.41223815435469147,-0.8472334994405507
1682364411196669200,13.673669189453125,1.0969809982031584,-0.5773503906220198,-0.3518979596823454
1682364411216796200,13.693796142578124,1.309694943600893,-0.15324994903802872,0.35612989816367624
1682364411236923100,13.713923095703125,0.2707137144237757,0.10817162090539932,-0.28157646922171115
1682364411257050000,13.734050048828125,-0.4739513909459114,0.03745499364733696,-0.6331757382184267
1682364411277178000,13.75417822265625,-0.13239771514534948,-0.10505728827714919,-0.44340193890333174
1682364411297305000,13.77430517578125,0.05690612857043743,-0.10333704035580157,0.08323416352570057
1682364411317432000,13.79443212890625,-0.4604822530418634,0.27770693431198595,0.24964696099758146
1682364411337559300,13.814559326171874,-0.775868637406826,0.2297422370880842,-0.28311376179158687
1682364411357686000,13.83468603515625,-0.2086240457355976,0.049130233871936796,-0.4836345805704593
1682364411377813000,13.85481298828125,0.27896599446237086,-0.2851075659573078,-0.26010288856029506
1682364411397941000,13.87494091796875,0.5349129323869943,-0.14608838684558867,0.41242753944694993
1682364411418068200,13.895068115234375,-0.10247603961229323,-0.15234510915279387,0.7217477556407451
1682364411438195200,13.9151953125,-0.6445253997504711,0.02913374002575874,0.22623744383752345
1682364411458322200,13.935322265625,-0.17394027036726473,0.06871405526399613,-0.040809564772248265
1682364411478449200,13.95544921875,0.0991881039828062,0.23446809656620024,0.46334641030132767
1682364411498576100,13.975576171875,-0.09901216289401053,0.307270882448554,0.7265133626073599
1682364411518704000,13.9957041015625,-0.597674801248312,0.247833189573884,0.20857845302820205
1682364411538831400,14.015831298828125,-0.22864625854492185,0.10562076737880706,-0.324182854282856
1682364411558958000,14.0359580078125,0.5423258389919996,-0.29790625725388525,-0.2918886043995619
1682364411579085000,14.0560849609375,0.5306324785888195,-0.3257143016338348,-0.2533060680270195
1682364411599212300,14.07621240234375,0.24585984367430208,-0.08521803081929682,0.10571253731548785
1682364411619339300,14.09633935546875,-0.16610124730467796,-0.1717377918869257,-0.3103746936827898
1682364411639467300,14.11646728515625,0.6271282747477293,-0.16987901227772234,-0.2562421214789152
1682364411659594000,14.136593994140625,1.121836622518301,-0.2272153489589691,0.20716507909893989
1682364411679721200,14.15672119140625,0.21016309187114238,0.11376081921458243,0.3902496099084615
1682364411699848200,14.17684814453125,-0.3848147253781557,0.30546120267808435,0.3762041334211826
1682364411719975200,14.19697509765625,-0.3064963909447193,0.2786123587191105,0.18129881643652915
1682364411740103200,14.217103271484374,0.22619185113012788,0.01480301685631275,0.2551081490129232
1682364411760230100,14.237230224609375,0.3272363966345787,-0.09705927526056767,0.38267245265245436
1682364411780357000,14.257357177734375,-0.309764452829957,0.10818857204020023,0.28248656980395315
1682364411800484000,14.277484130859374,-0.7490969503372907,0.2230927160710096,-0.2237771912038326
1682364411820611300,14.297611328125,-0.494659247931838,0.15791034206449986,-0.5630144067555666
1682364411840738000,14.317738037109375,0.10526070189476013,0.002087327668070793,0.002881692916154861
1682364411860866000,14.337865966796874,0.2835118211984634,-0.1673416027545929,0.24822131210863588
1682364411880993000,14.357992919921875,-0.04269114073514938,-0.17070844883918762,-0.21021803692877292
1682364411901120300,14.378120361328126,-0.05559212336242199,-0.1766553745448589,-0.8759510598808526
1682364411921247200,14.398247314453124,0.31367490427196026,-0.03976502415537834,-0.466242131742835
1682364411941374000,14.4183740234375,0.29429391197562216,-0.1291080259501934,-0.015741759011149405
1682364411961501200,14.438501220703126,0.11457622725069522,-0.16047230150699615,0.635961569544673
1682364411981629200,14.458629150390625,-0.11688567323684691,-0.3309703224658966,0.33331483976542947
1682364412001756200,14.478756103515625,-0.42872576329708095,-0.19747604425549506,-0.426633174932003
1682364412021883100,14.498883056640626,0.17281623477339744,-0.01536123526096344,0.34517537342905996
1682364412042010000,14.519010009765625,-0.32596681509017944,0.08165010920464992,0.5128408013105392
1682364412062137000,14.53913720703125,-0.6827829419523477,0.012248071676492691,0.64900342194736
1682364412082265000,14.55926513671875,-0.95268241738379,-0.24021862291693685,-0.20415654493272303
1682364412102392300,14.579392333984375,-0.04087269313633442,-0.3312923940271139,-0.3437894720286131
1682364412122519300,14.599519287109375,0.49833530609607696,0.008161094623804092,0.25875381203889847
1682364412142646000,14.61964599609375,-0.32502807293534275,0.14421324062347413,0.3895505217283964
1682364412162772700,14.639772705078125,-0.8958937777131796,0.12397826184630394,0.18458792110979555
1682364412182899700,14.659899658203125,-0.5329267270058393,-0.20391455287039278,-0.6151672033190727
1682364412203027700,14.68002783203125,0.5561252317637205,-0.1683078174382448,-0.38885961685478687
1682364412223154400,14.700154541015625,0.9145517164319753,0.20742343777418135,0.21043781715929508
1682364412243281700,14.72028173828125,-0.040681554478406906,0.3274257817268371,0.2396235796332359
1682364412263408600,14.74040869140625,-0.498728689327836,-0.04427519505620003,-0.4081465011268854
1682364412283535600,14.76053564453125,-0.05362111555039882,-0.34256139153838155,-0.6297369959414005
1682364412303663600,14.78066357421875,0.7544926719009876,-0.20642916603982447,-0.29737960303127764
1682364412323790600,14.80079052734375,0.5318441924661398,0.18815292011499404,0.29829204170107837
1682364412343917600,14.82091748046875,-0.4472100990146398,0.14502338796257971,0.11357143412232398
1682364412364044500,14.84104443359375,-0.4489321005016565,-0.29858196455836294,-0.3522147705465555
1682364412384171800,14.861171875,0.35869068856239317,-0.4731143555998802,-0.20864041234850883
1682364412404299800,14.8812998046875,0.6206400817722082,-0.021470073530077932,0.14858897148966788
1682364412424426500,14.901426513671876,-0.13732757276296614,0.354019189620018,0.401845355156064
1682364412444553700,14.9215537109375,-0.5198579865962266,0.16205752487182618,0.13654255986511707
1682364412464680700,14.9416806640625,-0.017888123390078545,-0.21707330965101718,-0.2255599829673767
1682364412484807700,14.9618076171875,0.6846639333933592,-0.5473235011488199,0.09829261644780635
1682364412504935700,14.981935791015625,0.519202737557888,-0.04888122754693031,0.6001239479660988
1682364412525062700,15.002062744140625,-0.6071534082114696,0.2352414190262556,0.08517185359001159
1682364412545189600,15.022189697265626,-0.5732622445255517,0.04808510873317718,-0.3648118017911911
1682364412565316600,15.042316650390624,0.11168342841863632,-0.10350538266003131,-0.21997779892086983
1682364412585443800,15.06244384765625,0.6613561230421066,-0.19342881469130516,0.05966156475841999
1682364412605570600,15.082570556640626,-0.015422025537490844,0.12051438512802123,0.18640519966483116
1682364412625698600,15.102698486328125,-0.43641164162456986,0.03299684519469738,-0.32226386891901493
1682364412645825500,15.122825439453125,0.2418891864776611,-0.17127835768163202,-0.606460749772191
1682364412665952800,15.142952880859376,0.8882505694836378,-0.35232582970559595,-0.2905500492721796
1682364412686079700,15.163079833984375,0.8035206144422292,-0.09948094944953918,0.12741641960144043
1682364412706206500,15.18320654296875,-0.3625584699064493,0.15182196206152437,-0.0949877296835184
1682364412726334500,15.20333447265625,-0.5497247170716524,0.062127078089118,-0.29701895302534104
1682364412746461700,15.223461669921875,-0.35060791987180706,-0.2167851403594017,-0.5425064562559128
1682364412766588700,15.243588623046875,0.34118542701005933,-0.3995838399648666,0.05793079544305801
1682364412786715600,15.263715576171874,0.5524386522054672,-0.11738485493063926,0.6438619674056768
1682364412806842600,15.283842529296875,-0.06683247930109501,-0.12950608535706995,0.05701368059813976
1682364412826970600,15.303970703125,0.24110943427681922,-0.04670271446406841,0.10907996792197226
1682364412847097600,15.32409765625,0.6414747800081968,-0.2438157706260681,-0.04457622382938862
1682364412867224600,15.344224609375,0.6340881768882274,-0.3529313943833112,0.26399112817049025
1682364412887351800,15.364351806640625,-0.022455577436089516,-0.19025135369896887,0.31839316496551034
1682364412907478500,15.384478515625,-0.7197866847008466,-0.1597866573303938,-0.1610363651305437
1682364412927606500,15.4046064453125,-0.42119361422657964,-0.10914601889550685,0.014831658428907393
1682364412947733800,15.424733642578126,-0.35741058562397954,-0.07684417022764682,0.04436871855854988
1682364412967860700,15.44486083984375,-0.4826116672635078,-0.10060673860907554,0.3574082475364208
1682364412987987700,15.46498779296875,-0.36974224393069743,-0.19742869798243046,0.044434769532084466
1682364413008114700,15.48511474609375,-0.13428279823958872,-0.31403321619033814,-0.5365151068866253
1682364413028242700,15.50524267578125,0.6312777956426143,-0.030941666230559346,-0.251501648953557
1682364413048369700,15.52536962890625,0.5977613104879855,0.10712883385419845,-0.10781740064024925
1682364413068496600,15.54549658203125,-0.40293256587088105,0.2380085456520319,0.002229366487264633
1682364413088623900,15.565623779296875,-0.8705909941524267,0.12028291445970535,-0.3648594403252005
1682364413108750600,15.58575048828125,-0.8286188153415918,-0.05117138431072235,-0.6790268042892217
1682364413128878600,15.605878662109374,0.09684183311760425,-0.09771920047402381,-0.19762188246697185
1682364413149005600,15.626005615234375,0.3586807516902685,-0.054604865890741344,0.2966261543154716
1682364413169133300,15.64613330078125,-0.2527478496223688,0.12256897957026958,0.3034869799956679
1682364413189260000,15.666260009765624,-0.5135609322786331,0.08403262042701244,-0.16042700106054544
1682364413209387000,15.686386962890625,-0.09758242235183716,-0.0554606059372425,-0.2513525958716869
1682364413229515000,15.706514892578125,0.2619043850243091,0.0011135141998529433,-0.011793898168206213
1682364413249642200,15.726642333984374,0.2244476378113031,0.17990940790474413,0.558487284719944
1682364413269769200,15.746769287109375,-0.39803719504475593,0.3201812174260616,0.5261170469909906
1682364413289896000,15.76689599609375,-0.8394336393445729,0.3462152378708124,0.20566694949567316
1682364413310023200,15.787023193359374,-0.6439601670831442,0.5228542458027601,0.3057256988331675
1682364413330151200,15.807151123046875,-0.43457858097851276,0.6161766726225614,0.5788274774372577
1682364413350278100,15.827278076171876,-0.6900292598187923,0.41171676082909103,0.8414175066381693
1682364413370405000,15.847405029296874,-1.2530144404798746,0.2852449286013842,0.5136190922066569
1682364413390532000,15.867531982421875,-0.8706862712204456,0.2449842298835516,0.3660661857664585
1682364413410660000,15.88766015625,0.031251462832093235,0.28983693256676196,0.5608855780333281
1682364413430787000,15.907787109375,0.7251245385974645,0.14009177677929402,0.9727157361090183
1682364413450914000,15.9279140625,0.3175011845618486,-0.1123287405848503,0.8493418698966503
1682364413471041300,15.948041259765626,-0.04417699537873268,-0.33377895014584064,0.6186921625748276
1682364413491169300,15.968169189453125,-0.6990642146676779,-0.2796311803728342,0.18449790473878383
1682364413511296000,15.9882958984375,-0.0861784002840519,-0.13390695066452027,0.42805853156000373
1682364413531423000,16.008423095703126,0.5662222628861665,-0.011617372557520865,1.2849693754062055
1682364413551550200,16.02855029296875,0.13847382018864154,0.2084095262020826,1.2972192006483674
1682364413571677200,16.04867724609375,-0.5578899033486843,0.4572720588237047,0.5360223549336195
1682364413591805200,16.06880517578125,-0.7684452094078064,0.6109118839621543,-0.1788330108448863
1682364413611932200,16.08893212890625,-0.0703179833292961,0.663813453066349,0.006394961734116077
1682364413632059100,16.10905908203125,0.18438333844840527,0.4905909755796194,0.2779576942026615
1682364413652186000,16.12918603515625,-0.31156653381586075,0.34802959381639953,0.01752104364335537
1682364413672313000,16.14931298828125,-0.056826633593440055,-0.0303337634652853,-0.5763397522747516
1682364413692441300,16.16944140625,0.6701356418251991,-0.03602876023650169,-0.6355553268313408
1682364413712568000,16.189568115234376,1.2960831823557615,-0.002530395260453224,-0.4370464323967695
1682364413732695000,16.209695068359373,1.1586521492183208,0.2979839986652136,0.43104543841630216
1682364413752822300,16.229822265625,-0.09409925641119479,0.21742168469727038,0.26115385891795156
1682364413772950300,16.2499501953125,-0.3587970715463161,-0.13534136738181113,0.008958674742281436
1682364413793077000,16.270076904296875,0.32488661863803864,-0.18822949248254298,0.23533494252860546
1682364413813204000,16.290203857421876,0.4140075021147728,0.13196049277186392,0.5468079528421164
1682364413833331200,16.310331298828125,-0.37048224864304063,0.3953986632347107,0.793397864356637
1682364413853458200,16.330458251953125,-1.1523808138638734,-0.036873978888988496,0.012380465884506702
1682364413873586200,16.350586181640626,-0.5501490799635649,-0.280858676341176,-0.10978227097243069
1682364413893713000,16.370712890625,0.5126520007401705,-0.20717501597106455,0.14088848011493682
1682364413913840000,16.390840087890624,-0.21611995444893836,0.14894377627670763,-0.09107494015395641
1682364413933967000,16.410967041015624,-0.2674222716629505,0.0975672247827053,-0.4909542559340596
1682364413954094000,16.431093994140625,-0.011876900276541709,-0.07086392677426338,-0.6838602157950401
1682364413974222000,16.45122216796875,0.8601192844986915,-0.36918402552604673,-0.5260223544448613
1682364413994349000,16.47134912109375,0.9041887278497218,-0.2621124748170376,-0.0638303748756647
1682364414014476000,16.49147607421875,0.11456979750990867,-0.06244622704088688,-0.10823007309436797
1682364414034603000,16.51160302734375,-0.3089431995749473,-0.04973346046209335,-0.474634697034955
1682364414054730200,16.531730224609376,-0.18729776459038255,-0.026588147196173667,-0.08386135551333426
1682364414074858200,16.551858154296873,-0.14054653480947016,-0.14298282204568386,0.432149892526865
1682364414094985000,16.57198486328125,-0.3126286100894213,0.036733109113574025,0.8346005200996994
1682364414115112200,16.5921123046875,-0.6346721142560243,0.21747195357978344,0.4595674762845039
1682364414135239200,16.6122392578125,-0.5798842930138111,0.2703460501551628,-0.12249971372634172
1682364414155367200,16.6323671875,0.02885843021571636,0.30147885504364963,0.2239735905587673
1682364414175495200,16.6524951171875,-0.04705342759788036,0.18697978468239307,0.5778825978025793
1682364414195622100,16.6726220703125,0.14825520949065685,0.23440321463644503,0.8121110403940082
1682364414215749400,16.692749267578126,-0.16287644003927707,-0.06411269894838333,-0.010237608636915684
1682364414235876000,16.7128759765625,-0.13173837445378303,-0.10453238762021064,-0.34644378592967984
1682364414256004000,16.733004150390624,0.5704664763271808,-0.27962007445693016,0.2399184709265828
1682364414276131000,16.753131103515624,0.47623161083757876,-0.2881476643055677,0.5141968920946121
1682364414296258300,16.77325830078125,-0.3336597076803446,-0.4314034580737352,0.058307812061905856
1682364414316385000,16.793385009765625,-0.6321387963861227,-0.24544658669829367,-0.638771950790286
1682364414336513000,16.813512939453126,-0.04221066374182701,0.03896247560083866,-0.26669074251800773
1682364414356640000,16.833639892578127,0.2645388251811266,0.26870120555758475,0.43841830527186393
1682364414376767200,16.853767333984376,0.1299438922524452,0.389284564268589,0.782744952917099
1682364414396894200,16.873894287109376,-0.15864976225495336,0.2732622298628092,0.5841282141938805
1682364414417021000,16.89402099609375,0.3058861500918865,0.03151391316056251,0.17101532283127308
1682364414437149000,16.91414892578125,0.8599638016760349,-0.06764964090287685,0.5241840331017971
1682364414457276200,16.934276123046875,0.483487865576148,0.159558693793416,0.9455819377288222
1682364414477403100,16.954403076171875,-0.59631695689857,0.1967950762540102,0.742988696590066
1682364414497530000,16.974530029296876,-0.7094155128121375,-0.1067605850636959,-0.09171996005922556
1682364414517658000,16.994658203125,-0.17662030323147773,-0.2097615253329277,-0.42415421759784216
1682364414537785000,17.01478515625,-0.17606559195816515,0.04009235641360283,-0.24410890835374593
1682364414557912000,17.034912109375,-0.5308680409103632,0.1953442929238081,0.14238251806497573
1682364414578039300,17.055039306640627,-0.47610827671885486,0.11657938376665114,-0.12020751113593578
1682364414598167300,17.075167236328124,0.2073474499285221,-0.09562310497760772,-0.34503567269742486
1682364414618294300,17.095294189453124,0.7807143238723278,-0.11741583459079265,-0.2486526892632246
1682364414638421000,17.1154208984375,0.5812164184004068,0.022802783438563345,-0.031714404168725015
1682364414658548200,17.13554833984375,-0.1254699617087841,0.095680388122797,-0.03396802831441164
1682364414678675200,17.15567529296875,-0.32318507541716096,-0.04670855968296528,-0.4341647394806146
1682364414698803200,17.17580322265625,-0.09068097240030765,-0.21737609198987481,-0.49491409947574133
1682364414718930200,17.19593017578125,-0.026805589339137077,-0.17602818255722522,-0.20140432361513375
1682364414739057200,17.21605712890625,-0.3192582573622465,0.05356383240520954,0.20159926166534423
1682364414759184100,17.23618408203125,-0.4263274699836969,0.018786533534526823,0.12961889808177948
1682364414779312000,17.25631201171875,0.054226095706224435,-0.19685294392108915,0.020009937849640846
1682364414799439000,17.276439208984375,0.6989379579395055,-0.26322832710444927,0.0083481416285038
1682364414819566300,17.29656640625,0.9524439324527978,-0.012357377269864082,0.3695762397140264
1682364414839693000,17.316693115234376,0.722497697225213,0.14250468313992024,0.6420490727648138
1682364414859821000,17.336821044921876,-0.0052484220474958414,0.21180735194683073,0.3996402463272214
1682364414879948000,17.356947998046873,-0.28255963504016396,-0.09042670537829399,0.03763677995502949
1682364414900075300,17.3770751953125,-0.17700725672245024,-0.18768705616891382,0.1437654968559742
1682364414920202200,17.3972021484375,-0.36988837440311906,0.08341770339906215,0.12851707431972026
1682364414940329000,17.417328857421875,-0.5787421372413635,0.15703414375185965,0.03504062598198652
1682364414960457000,17.43745703125,-0.4934089556097984,0.15117431180775165,0.1100374147772789
1682364414980584200,17.457584228515625,-0.1800070230603218,-0.103183311098814,-0.0014645195946097374
1682364415000711200,17.477711181640625,-0.1578290935218334,-0.20220833347439765,-0.1344885499447584
1682364415020838100,17.497838134765626,-0.06727846950292588,-0.11015665724277496,-0.24587504124343393
1682364415040966100,17.517966064453127,-0.09533084403276443,-0.012741408151388167,-0.31281331900656223
1682364415061093000,17.538093017578124,0.05666881268322468,0.06717734721601008,-0.1658835129007697
1682364415081220000,17.55822021484375,0.39324879172444344,-0.04242226066589355,0.30273177771419285
1682364415101347300,17.578347412109373,0.6058405720472335,-0.2427040099918842,0.6307844591677189
1682364415121475300,17.598475341796874,0.016309914287924766,0.004724690434336662,0.45335400859713554
1682364415141602000,17.61860205078125,-0.3175871092796326,0.11052373698949813,0.0968111457183957
1682364415161729000,17.63872900390625,-0.11465455318391322,0.4353372903913259,0.16521365081518888
1682364415181855200,17.658855224609376,0.3281336377352476,0.45623394794762134,0.5024889186441898
1682364415201983200,17.678983154296876,0.4599591059505939,0.33263620985150333,0.6243924200430512
1682364415222110200,17.699110107421873,0.32922903175652024,-0.0024608371555805207,-0.014043138399720191
1682364415242237400,17.719237548828126,0.47499826965034003,-0.08866963257789612,-0.29417934568524357
1682364415262364200,17.7393642578125,0.36453941459059713,-0.049126726740598675,0.0515329110994935
1682364415282492200,17.7594921875,-0.2591682380586862,0.2024579243212938,0.6185971777677536
1682364415302619100,17.779619140625,-0.8587614401489496,0.20141513727009294,-0.019489421106874943
1682364415322746400,17.799746337890625,-0.6422761595189571,0.0746101275652647,-0.7177125087752938
1682364415342873300,17.819873291015625,-0.0870411545932293,0.013211948272585868,-0.4664329781398177
1682364415363000000,17.84,-0.14680734876990317,0.06510638616085052,0.37527065196335313
1682364415383128000,17.860128173828127,-0.931516295236349,0.13958791891038416,0.4482911722496152
1682364415403255300,17.88025537109375,-0.48894963811337944,-0.14957389087378978,-0.12310673970878123
1682364415423382300,17.90038232421875,0.33643092595934865,-0.35272155102491376,-0.2258846848770976
1682364415443509200,17.92050927734375,0.4397872555375099,-0.26095512147545813,0.0619724720492959
1682364415463637200,17.94063720703125,0.102155721616745,0.05958090073764324,0.5636389683946966
1682364415483764200,17.96076416015625,-0.6523235062807798,0.31965222511589525,0.38216333408653735
1682364415503891200,17.98089111328125,-0.601716185593605,0.07681786674261093,-0.27113427792340516
1682364415524018200,18.00101806640625,0.050286418169736856,-0.04601005602478981,-0.525230327284336
1682364415544146200,18.021146240234376,0.6010282033294438,0.06815232972800732,0.05437076487392187
1682364415564273200,18.041273193359373,0.40959494636952876,0.15886837344169616,0.6706403764769434
1682364415584400100,18.061400146484374,-0.3635854748666286,-0.07732815435230732,0.18667349521219728
1682364415604527400,18.08152734375,-0.5927952125132083,-0.187056357049942,-0.2377548631519079
1682364415624655400,18.1016552734375,-0.2190501626819372,-0.1854191112369299,-0.23699206208586693
1682364415644782300,18.1217822265625,0.14047346957325935,-0.0709673871487379,0.28358693226128817
1682364415664909000,18.141908935546876,-0.2694844648897648,0.16451427037417887,0.6085600601390003
1682364415685036300,18.162036376953125,-0.7859405340880156,0.035496260794997216,-0.05046002117097378
1682364415705164300,18.182164306640626,-0.5967307983964681,0.06158522629737854,-0.7142486320570111
1682364415725291300,18.202291259765627,0.4144903171956539,-0.07431085235774516,-0.6165756088122725
1682364415745418200,18.222418212890624,0.9917349093556403,0.06452303331494331,0.3947428296744823
1682364415765545200,18.242545166015624,0.3737520640939474,0.06146072313487529,0.8608990366995334
1682364415785673200,18.262673095703125,-0.3063099284619093,-0.21977555434703824,0.4506967720866203
1682364415805800200,18.28280029296875,0.14312369182109833,-0.3085977471381426,0.19998101281374692
1682364415825927200,18.30292724609375,0.6654319941788911,-0.0020797288835048672,0.20347060849517581
1682364415846054400,18.323054443359375,0.19911855076551435,0.3501192595720291,0.5505322340622544
1682364415866182400,18.343182373046876,-0.6085989308446645,0.3225514536887407,0.2974967996701598
1682364415886309000,18.36330908203125,-0.7022206328719854,-0.029426000970602034,-0.28435177915394305
1682364415906436000,18.38343603515625,0.21850714184641837,-0.14804887326359747,-0.3149742964327335
1682364415926563300,18.403563232421874,0.6062473992824554,-0.002791676545143127,0.2143184579849243
1682364415946691300,18.42369140625,-0.04264320994019508,0.1953694273650646,0.6500444554328918
1682364415966818300,18.443818359375,-0.9014052346110344,-0.022467852395772932,0.033707039290666575
1682364415986945300,18.4639453125,-0.31169746671915055,-0.15414602109491823,-0.24876404068320987
1682364416007072300,18.484072265625,0.5008785608381032,-0.12658172234296797,-0.024789573341608046
1682364416027200300,18.5042001953125,0.42936756833195683,-0.12389058356285094,0.22173136458992956
1682364416047327200,18.5243271484375,-0.273346401014924,-0.08401508477032184,0.2869856347888708
1682364416067454500,18.544454345703127,-0.47052317006289957,-0.06818857008516788,0.006905249343812465
1682364416087581200,18.564581298828124,-0.2922363949239254,-0.1762251664340496,-0.2769716057747602
1682364416107709200,18.584709228515624,-0.0012315876215696334,0.05897182892858982,0.1786170300066471
1682364416127836200,18.604836181640625,-0.21150983030498027,0.25600012941658495,0.5120324075371027
1682364416147963400,18.62496337890625,-0.4130670063942671,-0.018863105902075766,0.11861351994276045
1682364416168089300,18.64508935546875,-0.19062194057703016,0.07815291473865509,-0.3033493250906467
1682364416188217300,18.66521728515625,0.10623393084108829,0.2890770541101694,-0.3040422757908702
1682364416208344600,18.685344482421876,0.5158066653788089,0.3212403710901737,0.2745870487257838
1682364416228471600,18.705471435546876,0.20761866808533666,0.17583996650874614,0.29853812541663644
1682364416248598500,18.7255986328125,0.03782733409106731,-0.1877022537380457,-0.2871948936253786
1682364416268726500,18.7457265625,0.07247370005846022,-0.3246493027508259,-0.7505702377602458
1682364416288853500,18.765853515625,0.38929508566260335,-0.2333984215080738,-0.33363924941420553
1682364416308980500,18.78598046875,0.23616730169951913,-0.10100479801595211,0.5123863355413079
1682364416329107500,18.806107421875,-0.17528759332299232,-0.1377396606951952,0.5065849557861686
1682364416349235500,18.8262353515625,-0.18781623550653456,-0.3872247091293335,-0.014704232656955718
1682364416369362700,18.84636279296875,-0.05322597875297069,-0.1268862582474947,-0.25042116024047134
1682364416389489400,18.866489501953126,0.32399931440949437,0.13416530933976173,0.37406507556587454
1682364416409616400,18.886616455078126,0.1003776060283184,0.2885585831940174,0.8135951414719224
1682364416429744400,18.906744384765624,-0.469841617539525,0.19660101498663424,0.30775223622471093
1682364416449871600,18.92687158203125,-0.24590602090358732,-0.09952478859126568,-0.2530228671714663
1682364416469998600,18.94699853515625,0.3316974676966667,0.0497357985496521,-0.2963172344967723
1682364416490125300,18.967125244140625,0.3049778030753135,0.13246961133778096,0.005927928744256496
1682364416510253300,18.98725341796875,-0.44724750841557975,0.24769874953925608,0.18135902219116687
1682364416530380500,19.007380615234375,-0.7090893495976924,-0.021667641928792,-0.22988339912444353
1682364416550507500,19.027507568359376,-0.054632338419556614,-0.12131927177011965,-0.4455465497165918
1682364416570635500,19.047635498046876,0.47713411263525485,-0.07661620669066906,-0.18416063560843465
1682364416590762500,19.067762451171873,0.14269523727595806,-0.013496025910973548,0.061898822291195386
1682364416610889500,19.087889404296874,-0.42288463605344295,0.053877720659971234,-0.016924831315875053
1682364416631016400,19.108016357421874,-0.22339725197553634,0.045129766058921814,-0.019228724344074726
1682364416651144400,19.12814453125,0.153385558116436,0.01563011533021927,0.2095212868362665
1682364416671271700,19.148271728515624,0.1449491536825895,0.12421382416784763,0.38139381101876496
1682364416691398400,19.1683984375,-0.1120540152966976,0.0728413643270731,0.20746844595968722
1682364416711525400,19.188525390625,-0.06139817929267883,-0.0001572363883256912,-0.06590484306216239
1682364416731653400,19.2086533203125,0.25409166544675826,-0.09672902039289474,-0.005866846206784248
1682364416751780600,19.228780517578127,0.2431757191568613,-0.04803308628499508,0.3221180307075381
1682364416771907600,19.248907470703124,-0.07248948214948177,0.29531507171690463,0.5610919142603874
1682364416792034300,19.269034423828124,-0.11289748038351535,0.06452244879305362,-0.013910159669816494
1682364416812162300,19.289162353515625,0.08785422454178332,-0.12410977927148341,-0.4470540316700935
1682364416832289500,19.30928955078125,0.2770639602333307,-0.09409458023607731,0.05453384648114443
1682364416852416500,19.32941650390625,-0.03482230705618858,0.04187807078659534,0.5196595414146781
1682364416872543500,19.34954345703125,-0.3440980995863676,0.009283376652002334,0.2913461680859327
1682364416892671500,19.36967138671875,-0.12067863577902316,-0.03302607128918171,-0.2328866725936532
1682364416912798500,19.389798583984376,0.3862947348028421,0.08935176962316035,-0.1426110661238432
1682364416932925400,19.409925537109373,0.3443769165277481,0.15696517016887665,0.18927520214319227
1682364416953053400,19.430053466796874,0.2963216184109449,0.2001023011058569,0.5989625029712915
1682364416973180400,19.450180419921875,0.05801964277029037,-0.020136779099702833,0.07953121735453605
1682364416993307600,19.4703076171875,0.18706220226883888,-0.2042009685963392,-0.420230614413321
1682364417013434400,19.490434326171876,0.432258029076457,-0.13304068922400475,-0.15704174253642558
1682364417033562400,19.510562255859377,-0.08311141392886638,0.10997077928185463,0.3693284024327993
1682364417053689600,19.530689697265625,-0.9264818082004785,0.35534839239716526,0.4280205376371741
1682364417073816600,19.550816650390626,-0.565667551612854,0.005472293931245803,-0.20799042400717735
1682364417093943600,19.570943603515627,0.2492354575872421,-0.24360008204877376,-0.6628644817784428
1682364417114071300,19.5910712890625,0.9473895716726779,-0.062032970064878463,-0.07655249380469321
1682364417134198500,19.611198486328124,0.35698037751317024,0.17776655065715313,0.2982482025593519
1682364417154325500,19.631325439453125,-0.6877385185331106,0.24278058235943317,-0.13354922326803206
1682364417174454000,19.6514541015625,-0.0711328068435192,-0.04166062864363193,-0.5392021540135145
1682364417194580700,19.671580810546875,0.5526823978334665,-0.26074410907328127,-0.475110205592215
1682364417214708000,19.6917080078125,0.5731511853665113,-0.03046703445613384,0.37954409149885177
1682364417234835000,19.7118349609375,-0.45378129409849643,0.25753508389890195,0.8919318883448839
1682364417254963000,19.731962890625,-1.0453799903035164,-0.0954103390097618,0.3444204634085297
1682364417275089700,19.752089599609373,-0.58495911206007,-0.23235563445687293,-0.25473025561124085
1682364417295217000,19.772216796875,0.04338613726198673,-0.1369669227570295,-0.3405357309296727
1682364417315344000,19.79234375,0.01722936722040176,0.062201896890997886,0.42882162488698955
1682364417335471900,19.812471923828124,-0.33410511336028575,0.1775800881743431,0.781245362009108
1682364417355598800,19.832598876953124,-0.04843874447643757,-0.2406225275427103,0.19002865085899828
1682364417375725800,19.852725830078125,0.6650695906072854,-0.29141514166891574,-0.17408961571007966
1682364417395853800,19.872853759765626,0.8014338712960482,0.13155308101475238,0.024296821388602254
1682364417415980800,19.892980712890626,0.0808931533575058,0.38071196623444553,0.610049129652977
1682364417436107800,19.913107666015627,-0.7496423092603683,0.2987690115630626,0.3759381759613752
1682364417456235800,19.93323583984375,-0.729774994751811,-0.06280161634981632,-0.0568377395093441
1682364417476363000,19.953363037109376,0.027189035698771475,-0.42970600650608537,-0.44316637658178804
1682364417496489700,19.97348974609375,0.5358575197607278,-0.1138888295084238,-0.1420765208557248
1682364417516616700,19.99361669921875,0.07834463791847228,0.1606003118008375,0.5972863864526152
1682364417536745000,20.013744873046875,-0.5281166963756084,0.23412848934829233,0.686122607769072
1682364417556872000,20.033871826171875,-0.47252749562263485,-0.2688128492385149,-0.12812895178496836
1682364417576999000,20.0539990234375,0.39362814643085,-0.3089847006291151,-0.2984802577495575
1682364417597126000,20.0741259765625,0.5365075081020594,-0.02334288166463375,0.03107961339652538
1682364417617254000,20.09425390625,-0.33137364256978036,0.25437457404136654,0.5252712438166142
1682364417637380900,20.114380859375,-0.748850282099843,0.051308746954798694,0.4208431933537125
1682364417657507800,20.1345078125,-0.2696060454428196,-0.28409108239114284,-0.22481588660180568
1682364417677635000,20.154635009765624,0.29366730450987816,-0.25481997972130777,-0.4091694144338369
1682364417697763000,20.17476318359375,0.46207975136637686,0.16985796948969364,0.1640399308606982
1682364417717889800,20.194889892578125,-0.26670857043564317,0.3303209186464548,0.3814955178275704
1682364417738016800,20.215016845703126,-0.729588532269001,-0.12200608499050139,-0.27459932368546724
1682364417758144800,20.235144775390626,0.07733166148364544,-0.22730361176431177,-0.35236177780181166
1682364417778272000,20.25527197265625,0.48891164419054983,-0.08691898951828479,-0.0017740239351987839
1682364417798399000,20.27539892578125,0.05445464376509189,0.15659516781270502,0.5434650721549987
1682364417818525700,20.295525634765625,-0.6326835707873105,0.04998655844032764,-0.20193039331585166
1682364417838653700,20.31565380859375,-0.18137246619462966,-0.32508827868998047,-0.7671960861295462
1682364417858781000,20.335781005859374,0.5899509289979934,-0.16309037505090235,-0.306981836374104
1682364417878908000,20.355907958984375,0.773130736875534,0.2606920866250992,0.7792962737679481
1682364417899036000,20.376035888671876,-0.21987843019962308,0.4652922836720943,0.9881029825940728
1682364417919162600,20.39616259765625,-0.5996364567101001,0.04422083452045917,-0.07679623943269252
1682364417939289900,20.416289794921877,0.22019524106383323,-0.1872568480581045,-0.4061933212324977
1682364417959416800,20.436416748046874,0.7167021626889706,0.19980185685455798,0.11566139213889837
1682364417979544800,20.456544921875,0.7100491345405578,0.37844928199946876,1.2260650587558746
1682364417999672000,20.476672119140623,-0.47345279377400873,0.35650282312929626,0.5961082825839519
1682364418019798800,20.496798828125,-0.4231564387321472,-0.1998784292221069,-0.371822557336092
1682364418039925800,20.51692578125,0.324458748614788,-0.13263093937933443,-0.23800416173785924
1682364418060053800,20.5370537109375,0.16550035880208014,0.09398001394569873,0.11755202819108962
1682364418080181000,20.557180908203126,-0.6887333747893571,0.15204875655472277,0.33329613506495953
1682364418100308000,20.577307861328126,-1.1263058768868446,-0.17159458402395247,-0.5797942766427994
1682364418120436000,20.59743603515625,-0.219552266985178,-0.5658206963479518,-0.958141267311573
1682364418140562700,20.617562744140624,0.6061918697029351,-0.13194704876840113,-0.33386078321039675
1682364418160690000,20.63768994140625,0.7798153292059898,0.3086310648858547,0.6028665246725082
1682364418180817000,20.65781689453125,-0.13036416349112986,0.3924164325535297,0.7153390576422214
1682364418200945000,20.67794482421875,-0.9604162265062332,-0.08014613438248634,-0.43646746346503495
1682364418221072000,20.69807177734375,-0.007470774272084236,-0.35071897903084753,-0.4691980589389801
1682364418241199000,20.71819921875,0.6041840370118617,0.010166589227318763,-0.20107757587879896
1682364418261327000,20.7383271484375,-0.019907061997056007,0.4832014498502016,0.9955834014773368
1682364418281454000,20.7584541015625,-1.3606670059472321,0.16506430547237394,0.18778584036827087
1682364418301580800,20.778580810546874,-0.8120558030754327,-0.6415799939483404,-1.0158376694768667
1682364418321708000,20.7987080078125,0.6726186908125877,-0.5716688378542661,-0.7716229626610874
1682364418341836000,20.8188359375,0.9978992772042751,0.17667232567965982,0.2818485641613602
1682364418361963000,20.838962890625,0.09183832574188709,0.4761421789884567,0.9332546633362769
1682364418382090000,20.859090087890625,-0.5183335535079241,0.10018412928283214,0.2701613412380218
1682364418402218000,20.879218017578125,0.149110949537158,-0.21933891649544238,-0.266561563180387
1682364418422345000,20.899344970703126,1.0775789631187915,0.12232231133282184,0.036538755585253234
1682364418442472000,20.919471923828127,0.3085083152890205,0.4631090944141149,0.5435965895801782
1682364418462599000,20.939598876953124,-1.0173018968105316,0.5520844319403171,0.6565881779879331
1682364418482727200,20.95972705078125,-0.9252490515351295,-0.06770049430727958,-0.14677403102219103
1682364418502854000,20.97985400390625,-0.06954524539113044,-0.37458617683053014,-0.458826887050271
1682364418522980900,20.99998095703125,0.36254736399054527,-0.17805588899254798,-0.25956103676855563
1682364418543108900,21.02010888671875,0.2888561048358679,0.06388415088951588,0.5319473605796694
1682364418563236000,21.040236083984375,-0.4236860155642032,0.14334171848595142,0.42640871852636336
1682364418583363000,21.060363037109376,-0.5124982714831828,-0.3908434841483831,-0.42113925369083877
1682364418603489800,21.08048974609375,0.5661427679091692,-0.40973756971061226,-0.4436649737536907
1682364418623617800,21.10061767578125,0.8712643633693457,0.00796644883453846,-0.07249328154176474
1682364418643745000,21.1207451171875,0.10595628294348716,0.37553544037938114,0.6688333270549773
1682364418663872000,21.1408720703125,-0.7250707625836134,0.21911212200224398,0.2171227017506957
1682364418684000000,21.161,-0.2633236041724682,-0.1564741717815399,-0.2238514254838228
1682364418704127000,21.181126953125,0.7613064435690641,-0.10532675286829471,0.040137656860053536
1682364418724254000,21.20125390625,0.5798749406635761,0.1772013179898262,0.4560656056433916
1682364418744382000,21.2213818359375,-0.261539058843255,0.3940396498411894,0.7056058913961053
1682364418764509000,21.241509033203126,-0.5898720185428857,0.032057518517971034,0.012824702520668505
1682364418784636000,21.261635986328123,0.12371581151783466,-0.29172026209533214,-0.492081798659265
1682364418804763100,21.28176318359375,0.5182523049652576,-0.08503332190215587,-0.36204233707785605
1682364418824891100,21.30189111328125,0.22183716305196283,0.12428981201350688,0.30221330679804087
1682364418845017900,21.322017822265625,-0.8468108901143073,0.15099018741250037,0.09684650929272175
1682364418865145000,21.34214501953125,-0.6910784766107797,-0.029133155503869055,-0.3557990587741136
1682364418885273000,21.362273193359375,0.3081161011010408,-0.11989011574983596,-0.24697160430848597
1682364418905400000,21.382400146484375,0.45014264533519743,0.05594634362757206,0.18789222335219383
1682364418925527000,21.402527099609376,0.06898176628947257,0.21208675341010091,0.5677271144911646
1682364418945654000,21.422654052734377,-0.24475977347791195,0.05955518177449703,0.051743046718835825
1682364418965782000,21.442781982421874,-0.0367255103290081,-0.16684300558269022,-0.3391469069197774
1682364418985909000,21.462908935546874,0.453437010705471,-0.13401274912655353,-0.143808751475811
1682364419006036000,21.483035888671875,0.31360359260141846,0.0937549730181694,0.4977326640278101
1682364419026164000,21.5031640625,-0.43952831234037876,0.2650403449624777,0.5092877850040793
1682364419046291000,21.523291015625,-0.5329693971037864,-0.10254559771716594,-0.21674948452413081
1682364419066418000,21.54341796875,0.060246671169996255,-0.24332769484817982,-0.25787819824814795
1682364419086545000,21.563544921875,0.3238672124624252,-0.04293547088503837,0.15992577354013918
1682364419106673000,21.5836728515625,-0.06998655941784382,-0.025539514926075934,0.30272651701718567
1682364419126800100,21.603800048828123,-0.3458960889190435,0.07689794624149798,0.17027736394554377
1682364419146926800,21.6239267578125,-0.21278584159016609,-0.1046475384324789,-0.477573965357244
1682364419167054800,21.644054931640625,0.3952110317081213,-0.17604338012635706,-0.2590148010626435
1682364419187182300,21.664182373046874,0.41048400416374203,0.06441606580913066,0.2361123566418886
1682364419207309300,21.684309326171874,-0.10632803886532782,0.14895371314883232,0.5826406059846282
1682364419227437300,21.704437255859375,-0.5005103120476008,0.013835633128881454,0.15856676014661789
1682364419247564300,21.724564208984376,-0.20124387235641478,-0.06755085670351982,-0.2004845784217119
1682364419267691300,21.744691162109376,0.3125011843174696,-0.01610883875787258,0.016218728873133657
1682364419287818500,21.764818603515625,0.22612346206903455,0.01473813492655754,0.2922270425736904
1682364419307946500,21.784946533203126,-0.09161386933624743,0.2741144627779722,0.5647895997345447
1682364419328073200,21.8050732421875,-0.41943244977295396,0.1553115577429533,-0.10837181965261697
1682364419348200400,21.825200439453123,0.07976385706663132,-0.09830430688560009,-0.2958399723738432
1682364419368328400,21.845328369140624,0.34787528003752227,-0.028785364979505536,0.04544482335746288
1682364419388455400,21.865455322265625,0.34864451084434983,-0.06015957740843296,0.349056306515634
1682364419408582400,21.88558251953125,-0.33690848034322257,-0.05135843131542205,0.22690262974798678
1682364419428710400,21.90571044921875,-0.3815121767014265,-0.21696575762331485,-0.23893033667206762
1682364419448837400,21.92583740234375,-0.011847089660167693,-0.1298047760426998,-0.31557401589155193
1682364419468964400,21.94596435546875,0.004713584518432617,0.057037645995616906,-0.10544891794323921
1682364419489091300,21.96609130859375,0.17627894244790077,0.16617957323789595,0.5962538285344838
1682364419509219300,21.98621923828125,-0.6373147377192974,-0.056629649716615674,0.040022213786840434
1682364419529346600,22.0063466796875,-0.4972761524319648,-0.44154900451302526,-0.4599392322063446
1682364419549473300,22.026473388671874,0.4329951111793518,-0.36419805380702014,-0.08002952226549387
1682364419569601300,22.046601318359375,0.7074369062155484,-0.10078151065409183,0.7908475953519344
1682364419589728300,22.066728271484376,-0.3357096259474754,0.009990063616633415,0.8821858626171946
1682364419609855500,22.08685546875,-0.9335030851393937,-0.22515140216648577,0.14508154789060354
1682364419629983500,22.1069833984375,-0.1428279237449169,-0.31496377503871914,-0.37405104704052206
1682364419650110200,22.127110107421874,0.6379354999661445,0.07943594028651714,0.14385755905359981
1682364419670237200,22.1472373046875,0.09382453112304211,0.5605418791621923,0.8849287315845489
1682364419690364400,22.167364501953124,-0.8412415655493736,0.2614928816139698,0.31613164977431296
1682364419710492400,22.187492431640624,-0.2076128228664398,-0.31988778743743895,-0.31490853772014377
1682364419730619400,22.207619384765625,0.6994342170238494,-0.3396253380864858,-0.37803953215479846
1682364419750746400,22.227746337890625,0.5909335102945565,0.09954700042307377,0.13961276109069584
1682364419770874400,22.247874267578126,-0.4422428319960832,0.47451779265701766,0.3984083664447069
1682364419791001300,22.26800146484375,-0.8010960176438092,0.24713760852515695,-0.04490764774084091
1682364419811128300,22.28812841796875,0.0192798700094223,-0.18724165048897265,-0.45156946326792236
1682364419831256300,22.30825634765625,0.6229805074185133,-0.15227321296036242,-0.2936690580755472
1682364419851383600,22.328383544921873,0.2975917844772339,0.047881110593676564,0.19333792153745888
1682364419871510300,22.34851025390625,-0.41422728234529493,0.2957856118381023,0.6718833622753619
1682364419891638300,22.36863818359375,-0.7575649189531802,-0.10478139394521713,-0.18314882821738718
1682364419911765200,22.38876513671875,-0.15941899306178092,-0.39741351018846033,-0.5590829125255345
1682364419931892500,22.408892578125,0.4768108720302581,-0.14824059644341467,-0.1662628676071763
1682364419952019500,22.42901953125,0.34030455252230163,-0.090221538195014,0.4817305005148053
1682364419972147500,22.4491474609375,-0.4051788834929466,0.23247604596614838,0.5033683318272233
1682364419992274200,22.469274169921874,-0.4411807557225227,-0.027927286845445633,-0.005865677163004875
1682364420012401400,22.4894013671875,0.10547580595016479,-0.09295593159496783,-0.23893501284718513
1682364420032529400,22.509529296875,0.42588966308832166,0.09875555778443813,-0.027511984042823314
1682364420052656400,22.529656494140625,0.06263035143613815,0.2171639105439186,0.3187619982779026
1682364420072783400,22.549783447265625,-0.49238779586851594,0.14475158528387547,-0.0014800094246864319
1682364420092911400,22.569911376953126,-0.07383680510520935,0.06526596063673495,-0.25012889929562804
1682364420113038300,22.590038330078126,0.3399100002467632,-0.05734568903148174,-0.27141777103990317
1682364420133165300,22.610165283203123,0.4126508268088102,0.04417933346629142,0.07541121481508016
1682364420153293300,22.630293212890624,-0.20700141296982763,0.090016371011734,0.08676058408617973
1682364420173420000,22.650419921875,-0.4488070128172636,-0.03224105839133262,-0.2166381331041455
1682364420193546800,22.670546630859373,-0.23763678973019123,-0.16065934851169586,-0.35782296581715345
1682364420213673700,22.690673828125,0.2544768653720617,-0.012646131083369254,-0.09665829324424266
1682364420233801700,22.7108017578125,0.33185587312877174,0.19082710776031017,0.4504164938405156
1682364420253929000,22.730928955078124,-0.20321546469032764,0.20214286702275275,0.16386603559851645
1682364420274056000,22.751055908203124,-0.12073650344610214,-0.0676128160238266,-0.1640992598325014
1682364420294184000,22.771183837890625,0.13916355601847172,0.10517127004563807,-0.07991407919228076
1682364420314311000,22.791310791015626,0.02092646817266941,0.2054302181303501,0.1328764385730028
1682364420334438000,22.81143798828125,-0.017176175728440282,0.05786649803519248,0.32202626077085733
1682364420354566000,22.83156591796875,-0.09514321250617504,0.029564532658457755,-0.16183716011941432
1682364420374692900,22.85169287109375,-0.07439969968497753,-0.2089507934719324,-0.5921788341805339
1682364420394820000,22.871820068359376,0.22640695518553255,-0.18822130917608737,-0.19072978486567735
1682364420414947800,22.89194775390625,-0.29188451274633403,-0.05696984145641327,0.18118483466804025
1682364420435074800,22.91207470703125,-0.6158002405256032,-0.056875733432173725,0.20268501107543704
1682364420455201800,22.932201904296875,-0.321689283901453,-0.1091395891547203,-0.11032587632983923
1682364420475329000,22.9523291015625,0.044615971317887304,-0.10349895291924475,-0.3033297436073422
1682364420495457000,22.97245703125,0.2636941910505295,0.13961539143919943,0.20290391452312467
1682364420515583700,22.992583740234377,0.15730594643056392,0.23925708440840243,0.6308002412587403
1682364420535710700,23.012710693359374,-0.15368307975828646,0.24719489167034625,0.5968462414696812
1682364420555838700,23.032838623046874,-0.3640221127182245,-0.11161328579187392,-0.28864129304140806
1682364420575966000,23.052966064453123,0.12731821992397307,-0.23210312100052832,-0.5542185213595628
1682364420596093000,23.073093017578124,0.3267074043244123,0.013330606216192245,-0.09610328970998525
1682364420616221000,23.093220947265625,0.056444940799474715,0.2050122849792242,0.42134617443978784
1682364420636347600,23.11334765625,-0.3951888198763132,0.21278993324339388,0.2878665092766285
1682364420656475000,23.133474853515626,-0.31940029618144034,-0.26485855865478514,-0.3882318403452635
1682364420676603000,23.153602783203127,0.3457774309754371,-0.3875093712896108,-0.5167211498752236
1682364420696729900,23.173729736328124,0.509517794367671,-0.1718412522614002,-0.13827479048520325
1682364420716856800,23.19385693359375,0.08281915298402309,0.21999708814322946,0.6820601806357502
1682364420736985000,23.213985107421873,-0.41991760294139385,0.12572773586213587,0.6002545886084437
1682364420757111800,23.23411181640625,-0.3686924426168203,-0.23901976852118967,-0.11911182485371827
1682364420777238800,23.25423876953125,0.25888883659541606,-0.2381131750702858,-0.10085837528258562
1682364420797366800,23.27436669921875,0.21573709261119364,0.12633096245229244,0.37673049538284537
1682364420817494000,23.294493896484376,-0.36797640330195425,0.3870043443769216,0.7316261755764484
1682364420837621000,23.31462109375,-0.7386696643471717,0.03210544931292534,0.21182108821123838
1682364420857748700,23.334748779296874,-0.024069442373514174,-0.3584621405035257,-0.45983431052714585
1682364420877875700,23.354875732421874,0.2923608980864286,-0.14236556693017482,-0.5445560822620987
1682364420898003000,23.3750029296875,0.0838075794994831,0.21594401336014268,-0.02011339822411537
1682364420918131000,23.395130859375,0.13244623046219348,0.3693909462749958,0.5371580809652805
1682364420938258000,23.4152578125,-0.316484116473794,-0.0003127192109823227,-0.021712357853353022
1682364420958384600,23.435384521484377,0.15254793824851512,-0.26243688446581365,-0.2657870716765523
1682364420978512000,23.455511962890625,0.49086219373643397,-0.12097148124575614,-0.17971388533264399
1682364420998639900,23.475639892578126,-0.12160159584283828,0.27434008822739125,0.15395283661037681
1682364421018766800,23.495766845703123,-0.23922610474824904,0.3615022388517856,0.530083320273459
1682364421038893800,23.515893798828124,-0.3679728961706161,-0.029318448942899703,-0.134692548084259
1682364421059021800,23.536021728515625,0.2523503747373819,-0.4021604124546051,-0.5237219685479998
1682364421079148800,23.556148681640625,0.7582160763382911,-0.08404840251803397,-0.1070063765183091
1682364421099275800,23.57627587890625,0.24349019193351268,0.06751753895580768,0.2201294823512435
1682364421119403800,23.59640380859375,-0.15808979028463363,0.18309739029109476,0.7241057169437408
1682364421139531000,23.616531005859375,-0.2380424479216337,-0.09333937795460223,0.17496522950083016
1682364421159658000,23.636657958984376,-0.029973113459348676,-0.32959552698135375,-0.28018530712425704
1682364421179786000,23.656785888671877,0.32303309972584243,-0.14538754509985446,-0.015517010344564914
1682364421199913000,23.676912841796874,-0.027243980756402015,0.28753157823383807,0.4775052840352058
1682364421220040200,23.697040283203126,-0.2817167544752359,0.33528000235855576,0.6720584265813231
1682364421240168200,23.717168212890623,-0.33144729232788084,0.011492284873127936,-0.11127747796624898
1682364421260295000,23.737294921875,0.3971013754993677,-0.2854892587512731,-0.4489148571059107
1682364421280422000,23.757421875,0.6761246531069278,0.0380371774494648,-0.09696516723632811
1682364421300550000,23.7775498046875,-0.0884130274683237,0.178839148324728,0.18156769650578497
1682364421320677000,23.797677001953126,-0.5376747983157635,0.22225801881253718,0.32769320049136874
1682364421340804000,23.81780419921875,-0.27972119674384593,-0.151429163351655,-0.3633092882737517
1682364421360931800,23.837931884765624,0.407020711967349,-0.3792687816888094,-0.5115276728853583
1682364421381058800,23.858058837890624,0.34030046086907384,0.05991758534610271,-0.23429186321645973
1682364421401186000,23.87818603515625,-0.17090835532546042,0.40287236011624333,0.41040655501335854
1682364421421314000,23.89831396484375,-0.28775252750813957,0.2843547017633915,0.4299646574422717
1682364421441441000,23.91844091796875,0.22170681467056272,-0.26563772633373733,-0.16225041709542273
1682364421461568000,23.938568115234375,0.8360130172461271,-0.26376024202406406,-0.16046557950526474
1682364421481696000,23.958696044921876,0.5344195959120989,0.010445406168699264,0.24200141468048095
1682364421501823000,23.978822998046876,-0.20850363422632215,0.19968904412984848,0.5270020131319761
1682364421521950000,23.998949951171873,-0.5415934330642223,-0.06025543899834156,0.17941987082213162
1682364421542078000,24.019077880859374,-0.19389993933439253,-0.4126408899366855,-0.24454934559762476
1682364421562205200,24.039205078125,0.10462883373200893,-0.33201778569221496,-0.14928835193067788
1682364421582332000,24.059331787109375,-0.04408931709527969,0.06463526151776314,0.34614217263460156
1682364421602460000,24.0794599609375,-0.5443167205482721,0.28507950890660283,0.6023898470714688
1682364421622587000,24.0995869140625,-0.5870365028560162,0.002775309932231903,-0.0668912237510085
1682364421642714000,24.119714111328125,0.2609299870342016,-0.24468261658847332,-0.25175036301761866
1682364421662842000,24.139842041015626,0.6430296082347631,-0.0029290391892194748,-0.10021072502881288
1682364421682969000,24.159968994140623,0.09135141900777816,0.15895488268136979,-0.06559066254645586
1682364421703095800,24.180095703125,-0.40961540463566776,0.19235621702373026,-0.21107348471432924
1682364421723223800,24.200223876953125,-0.2683335412889719,-0.1491191328436136,-0.5137237216249108
1682364421743351000,24.22035107421875,-0.011116437298059462,-0.18454115935862064,-0.1845902591973543
1682364421763478000,24.24047802734375,-0.0506768787920475,0.07885083387494086,0.34460429554283617
1682364421783606000,24.26060595703125,-0.5437427200525998,0.29013445420861245,0.37612317713946103
1682364421803733000,24.28073291015625,-0.543843257817626,0.1095621984809637,-0.0936003669783473
1682364421823860000,24.30085986328125,0.21705226686298845,0.005534837773442268,-0.18382716587036846
1682364421843988000,24.320988037109377,0.5754395885646343,-0.11359364595413207,-0.008684241715073584
1682364421864115000,24.341114990234374,0.25911446204483507,0.12656944738328457,0.48477965895235536
1682364421884242200,24.3612421875,-0.23253917433023452,0.30762393366992474,0.37015024020969867
1682364421904370200,24.3813701171875,-0.09507833057641983,-0.1352776544958353,-0.2833376336753368
1682364421924497000,24.401496826171876,0.4607230760604143,-0.2741407662630081,-0.309290697838366
1682364421944623900,24.421623779296876,0.7036568031549454,-0.2717664383471012,0.24730215143710374
1682364421964752000,24.441751953125,0.058874798294901845,0.16537410207390785,0.8064592982426285
1682364421984879000,24.461879150390626,-0.7379284905910491,0.18554595248699188,0.08557400465011596
1682364422005006000,24.482006103515626,-0.268083365920186,-0.10488368527591228,-0.4013321449369192
1682364422025134000,24.502134033203124,0.35046062035560605,-0.08494973527193068,-0.1965244426190853
1682364422045260800,24.5222607421875,0.1024345385581255,0.049320203486084936,0.30473756457865236
1682364422065388000,24.542387939453125,-0.2716483649253845,0.0951449660718441,0.3093617172479629
1682364422085516000,24.56251611328125,-0.32982758217155933,0.03857435306608677,-0.23957184944599866
1682364422105643000,24.58264306640625,0.17319909661114216,-0.04347556911110878,-0.42052755153328175
1682364422125770000,24.60277001953125,0.44864626929759976,0.01666881072819233,-0.10362900903970003
1682364422145898000,24.62289794921875,0.05818564698696136,0.02025894417464733,0.3557224864065647
1682364422166025000,24.64302490234375,-0.47446986186206336,0.08007014653682708,0.1497109612569213
1682364422186152200,24.663152099609373,-0.471094832471013,0.07642331446707248,-0.2625266085758805
1682364422206280200,24.6832802734375,-0.14067045345008372,0.08238777582943439,-0.43776510206013913
1682364422226407200,24.7034072265625,0.09193886350691317,0.035250761601328846,-0.10615151325464248
1682364422246534100,24.7235341796875,-0.08513269062340259,0.21994038951992986,0.4190592325463891
1682364422266662100,24.743662109375,-0.21350071186125277,0.0022989245921373365,-0.023519115014374255
1682364422286789000,24.7637890625,0.41185236990749835,-0.04889642511606216,-0.2088961406752467
1682364422306916400,24.783916259765626,0.376352601981163,-0.02756488327383995,-0.2003150670737028
1682364422327044400,24.80404443359375,0.1410118142336607,-0.02373158872127533,0.41031332377195356
1682364422347171000,24.824171142578123,-0.451568294224143,-0.08570435303151606,0.3647828679576516
