time,seconds_elapsed,z,y,x
1682097021921478400,0.026478515625,-0.18907763374447822,-1.71769852912575,-0.6567495060294866
1682097021941607400,0.046607421875,-0.9049953680574894,-1.107435172200203,0.22615268816351888
1682097021961736700,0.06673681640625,-2.1564292613476512,-0.7763362549185753,1.4029717777132986
1682097021981865700,0.08686572265625,-2.163586147364974,-0.8389367957383393,1.5218050778865813
1682097022001994500,0.106994384765625,-1.197749649375677,-0.6088640115216374,1.0977940681517124
1682097022022123500,0.12712353515625,-0.2671387785464525,-0.3938867973670363,1.3502297830849885
1682097022042251800,0.147251708984375,-0.858012667608261,-0.6222577461019158,1.6500141091704368
1682097022062381000,0.167381103515625,-2.303198031672835,-1.0482014774650334,0.21278759515583515
1682097022082510000,0.187510009765625,-3.7728129035949705,-1.2451029367029667,-2.0490344700336456
1682097022102638800,0.207638916015625,-3.4754280398666855,-1.26456751562953,-1.9683599278628825
1682097022122768000,0.227767822265625,-2.1484306638091804,-1.3966019504204392,-0.12779343622028827
1682097022142897000,0.24789697265625,-1.6647428917467593,-1.1907479539200663,0.6751788966894149
1682097022163026000,0.26802587890625,-0.9232102391839027,-1.2988859648168085,0.13612462671399117
1682097022183155000,0.288155029296875,0.3317933292865753,-1.5741688868522643,-0.17922493277192114
1682097022203284000,0.308283935546875,1.447662567833066,-1.6488260684296487,0.19263269587755202
1682097022223412000,0.328411865234375,1.306662444037199,-0.9272177212595939,1.2563713496923445
1682097022243541000,0.348541015625,0.5946551611661911,-0.7883806207165122,0.7968763541221618
1682097022263670000,0.368669921875,0.4757335981875658,-1.2725950470015406,0.7472264802902937
1682097022283799000,0.388799072265625,1.771123537582159,-0.43210313077569007,0.7723872250318526
1682097022303927800,0.408927734375,1.299717154943943,0.5571542825505137,1.5183558142155409
1682097022324056800,0.429056884765625,0.5195248091191053,0.7899322340726852,1.1681266645282506
1682097022344185900,0.449185791015625,1.3462310688376427,0.7669938415557146,0.9212667039006948
1682097022364315100,0.469315185546875,3.294232099282741,2.067529327145219,0.8328244503378868
1682097022384444000,0.48944384765625,5.264814963892102,3.206521374864876,2.0669401290804146
1682097022404572000,0.509572021484375,3.1733547260612247,2.1787644272744653,0.05186228918433189
1682097022424701000,0.529700927734375,-0.5760252794981002,2.271935462924838,-1.824263007095456
1682097022444830000,0.549829833984375,-0.0216784555837512,3.9926922105774283,-1.481219384998083
1682097022464959000,0.569958984375,1.4505208798736333,4.4096877885922785,-1.6659850007623433
1682097022485087700,0.590087646484375,1.7370003187060354,5.563214557620882,-3.0642987235367296
1682097022505216800,0.610216796875,1.189862695518136,7.003117012846469,-3.630991526544094
1682097022525346000,0.630345947265625,-0.3914844124004245,6.415897554638981,-4.325162708473205
1682097022545475000,0.65047509765625,-1.6093215949065982,4.549168447735905,-5.144646615722775
1682097022565604000,0.67060400390625,-1.7933559737868605,2.655150936412811,-3.3717081376731395
1682097022585732900,0.69073291015625,-1.3511176718354225,0.8949462677299976,-2.0030583162784574
1682097022605862000,0.71086181640625,-0.6113320090703666,-0.6454957060873509,-0.32248072654008864
1682097022625990000,0.730989990234375,0.36414676201120016,-1.646490611219406,1.2296557767242193
1682097022646119000,0.751118896484375,0.771917707823962,-2.2355367003321645,1.3028700660169124
1682097022666248000,0.771248046875,0.5376723140977323,-2.7002982381284237,0.20078443815112113
1682097022686377000,0.791376953125,0.2441741556096822,-2.2692957620710135,0.23276538430154323
1682097022706506000,0.811506103515625,0.4955705175578594,-0.9638684127867221,0.8265344102829695
1682097022726635000,0.831635009765625,0.27365451711602506,-0.4559826035350561,1.5048948596179483
1682097022746764000,0.851763916015625,0.25699330517239866,-0.13870996703207492,0.5922329024553299
1682097022766892800,0.871892822265625,-0.27331480030026284,-0.025043255841732025,-0.47686289447844027
1682097022787021800,0.892021728515625,-1.1023246242534368,0.1311731417864561,-2.854598573002219
1682097022807150800,0.91215087890625,-1.6358698484838008,0.4683908342093229,-3.797903505709767
1682097022827278800,0.93227880859375,-1.2664631201177834,0.9765969614565372,-4.666602402505278
1682097022847408000,0.952408203125,-1.0295195733487605,0.9762263745784759,-6.048766369989514
1682097022867537000,0.972536865234375,-0.8642664673060179,0.625741204303503,-6.829967600595951
1682097022887666000,0.992666015625,-1.5284814869105814,0.673466832074523,-6.318252588444948
1682097022907795000,1.012794921875,-3.2008430369675156,0.8928384817957877,-5.929129352217912
1682097022927924000,1.032924072265625,-4.8717877059638495,-0.7090162843614817,-5.034930103462934
1682097022948053000,1.053052978515625,-4.875556703108549,-2.8282991796195507,-3.2230051844149825
1682097022968181800,1.073181640625,-3.797584941279888,-5.568906047260761,-0.14231120639443395
1682097022988311000,1.09331103515625,-3.028318478617072,-8.189239352792502,0.6534715072721242
1682097023008440000,1.113440185546875,-4.213649375924468,-10.211268911522627,0.6738403415620327
1682097023028569000,1.133569091796875,-4.084212264150381,-10.40468369768858,1.5184417389333247
1682097023048697000,1.153697021484375,-2.7018735246211287,-8.837178944900632,1.7150024219095705
1682097023068825900,1.173825927734375,-2.5701158609449863,-9.079080990859866,0.5888917753338814
1682097023088955000,1.193954833984375,-2.519203419831395,-8.305558039796352,-1.7956319558948277
1682097023109084000,1.214083984375,-2.3040425196729597,-7.181904723244905,-1.7340139963716268
1682097023129213000,1.234212890625,-1.8411447299219668,-5.096303148314356,-0.5411451047748327
1682097023149341700,1.254341796875,-1.4758521588765083,-3.7103368659377094,-1.1089882468611
1682097023169471000,1.274470947265625,-1.2092916186094282,-0.8741782049894332,-4.288531890690327
1682097023189600000,1.29460009765625,-2.062309838931262,0.7536328402012586,-7.8535010852724305
1682097023209729000,1.31472900390625,-1.9954764828473328,2.261988653928041,-6.902371742549538
1682097023229858000,1.334858154296875,0.06076894147843122,4.92350444919765,-5.502658674371242
1682097023249986800,1.35498681640625,0.5996224281847476,8.000368639796973,-6.653530837237835
1682097023270114800,1.37511474609375,-0.5223641241982578,9.394998705622553,-6.958108827340602
1682097023290243800,1.395243896484375,-0.9396423185467719,9.76573229867816,-5.107819983106851
1682097023310372900,1.415372802734375,1.1456661186560988,11.237519838464259,-3.0811119111716745
1682097023330502100,1.435502197265625,2.255829546776414,12.367350382345915,-2.0154957730472085
1682097023350631000,1.455630859375,0.39702611830607054,11.186030474245548,-0.8976263005942106
1682097023370760000,1.475760009765625,-0.8168095734737812,8.58613205397725,1.9733914922893045
1682097023390889000,1.495888916015625,-1.5150992966376244,6.2826037674367425,5.514715022867918
1682097023411018000,1.51601806640625,-1.4035779269129036,4.537677916428446,9.081869160273671
1682097023431146800,1.536146728515625,0.47755803713575,3.4839573832809925,10.784227789187431
1682097023451275800,1.55627587890625,3.196603499701619,3.1285183899909255,11.101600963455438
1682097023471405000,1.576405029296875,4.522030849963427,3.346990168263018,12.473666730773449
1682097023491534000,1.5965341796875,5.115402401059866,4.512973098760843,13.031045761990546
1682097023511662000,1.616662109375,5.1704351369738575,5.244647205132246,11.824151852172612
1682097023531790800,1.636790771484375,4.646671959632635,5.460850161689519,9.579316577619313
1682097023551919900,1.656919921875,4.1257565729379655,4.877807696905732,5.1269782725632185
1682097023572049000,1.677048828125,1.5205869342684746,5.277976643282175,0.8209580714553594
1682097023592178000,1.697177978515625,-0.370526745371893,4.253206602548063,-2.439482232862711
1682097023612307000,1.717306884765625,0.639642888405919,2.252619352558255,-10.40093457428813
1682097023632436000,1.73743603515625,1.3211381286352872,1.0116220976084471,-15.344031612706184
1682097023652565000,1.75756494140625,1.0068635049045085,1.835272476887703,-11.309082853418587
1682097023672694000,1.777694091796875,-2.189254257106781,2.9820190842568874,-6.390990492397546
1682097023692823000,1.797822998046875,-5.20612604355812,1.4386428105533122,-5.035342775917053
1682097023712951800,1.817951904296875,-5.73959345331192,-1.8332143753141164,-4.965628603699803
1682097023733080800,1.838080810546875,-5.214267264437675,-4.555819137796759,-3.6081332135260102
1682097023753209900,1.8582099609375,-5.506804103612899,-7.1688248769193885,-2.387380874225497
1682097023773337900,1.878337890625,-6.699280196499824,-9.97936920413971,-1.8237357683509587
1682097023793467100,1.898467041015625,-5.391038374316692,-13.178105624216794,-2.780011241790652
1682097023813596000,1.918595947265625,-2.128091055613756,-14.111927273786067,-2.6006489463746547
1682097023833725000,1.938724853515625,-1.7562240746140478,-13.061701597017048,0.3052852615892887
1682097023853854000,1.95885400390625,-3.508047868442535,-10.969392633402347,1.482713422948122
1682097023873983000,1.97898291015625,-5.776479122638702,-8.757122826889157,0.540969163686037
1682097023894111700,1.99911181640625,-6.745023710542917,-7.567707290616631,-1.3383160579293965
1682097023914240800,2.01924072265625,-4.851120180988311,-5.068332022327184,-4.197263473790883
1682097023934370000,2.0393701171875,-3.6628409552693366,-1.3708429475247859,-5.491847357499599
1682097023954499000,2.0594990234375,-3.212638104179501,-0.3621446284085512,-7.182728899109363
1682097023974628000,2.079628173828125,-2.3444606009095907,0.8692769889444112,-10.441604438328742
1682097023994756900,2.0997568359375,-2.0785499028533696,4.6154865477740765,-12.875490458619593
1682097024014886000,2.119885986328125,-1.5916624579668044,8.573317580589652,-13.309534202069043
1682097024035015200,2.14001513671875,-1.1990997488103807,12.134744572520255,-9.418281966054439
1682097024055143200,2.16014306640625,-0.4095312334835529,12.496093666636943,-2.8794097736537454
1682097024075272200,2.180272216796875,2.073060073265433,11.672722104299067,2.296249235448241
1682097024095401000,2.20040087890625,3.6447085017293688,11.028983471012115,5.731576151072979
1682097024115530000,2.220530029296875,2.8249679893702266,9.10374664556086,6.150575470125675
1682097024135659000,2.240658935546875,1.5900602834671735,7.062004086101055,7.097831186285615
1682097024155788000,2.2607880859375,1.2202128986615688,6.1576540302097795,9.964592490768432
1682097024175917000,2.2809169921875,0.936014775699377,6.114669459486008,11.366177782559394
1682097024196046000,2.301046142578125,1.5679764619529246,4.663938151732087,11.607973445534705
1682097024216175000,2.321175048828125,3.120929542297125,3.4820156015634534,12.550918312758206
1682097024236304100,2.34130419921875,4.945006671431661,4.698867134033144,12.319623001009225
1682097024256433000,2.361432861328125,5.8261319190800185,4.701199084112048,10.254246467983721
1682097024276562000,2.38156201171875,4.9904415579169985,3.9368960890755056,7.774224719461798
1682097024296691200,2.401691162109375,3.6139924609482286,3.984439346016943,5.589184865179657
1682097024316820200,2.4218203125,2.8231261608958245,4.319718471592664,2.454894321528077
1682097024336949000,2.441948974609375,1.224809578802064,4.331689772154391,-1.8535025455832481
1682097024357077200,2.4620771484375,-1.6493822410076855,3.309785057723522,-6.990525242298841
1682097024377206000,2.4822060546875,-1.7828735966086386,1.7655547975391148,-11.358401303339004
1682097024397335000,2.5023349609375,2.010189483332634,1.5479367134869098,-11.379638152635097
1682097024417464000,2.522464111328125,2.3111036902308464,1.609781467503309,-8.544621062937379
1682097024437593000,2.542593017578125,-0.5715028336375951,1.4883388616144657,-6.634238107746839
1682097024457721900,2.562721923828125,-4.1362955026090145,-0.17085574835538864,-6.348923036518692
1682097024477851100,2.58285107421875,-5.259837760001421,-2.8264140965253115,-6.044339201197028
1682097024497980200,2.602980224609375,-4.083116870129108,-4.884529698637127,-4.289928313484788
1682097024518109200,2.623109130859375,-5.033083014291525,-6.586779606479406,-1.8574977526992558
1682097024538238000,2.643238037109375,-7.291098088413476,-8.928725009697676,-0.01613631128668785
1682097024558367000,2.663366943359375,-7.157213349580764,-11.561240920454264,-0.40738428458273407
1682097024578496000,2.68349609375,-3.790141639536619,-11.832822649884223,-1.883933924204111
1682097024598625000,2.703625,-2.3722809202492234,-11.152820278561114,-0.5586906983375549
1682097024618754000,2.723754150390625,-3.1561610146760937,-9.384493678221107,-0.12204290986955166
1682097024638883000,2.743883056640625,-4.642643434768915,-7.007716615596413,-0.9930115051627159
1682097024659012000,2.76401220703125,-4.962173494809866,-5.936098606708645,-2.2596137414902446
1682097024679141000,2.78414111328125,-2.8418536577194926,-3.22349501375854,-4.7185295736193655
1682097024699269000,2.80426904296875,-1.173370410400629,-0.39115269622802734,-5.675570770734549
1682097024719398100,2.824398193359375,-0.9724655607402324,1.3457190276622772,-5.9816170798242085
1682097024739527000,2.84452685546875,-1.257487786501646,1.9113520924836396,-6.558455429270863
1682097024759656000,2.864656005859375,-0.8510778999090194,4.738244912436604,-7.759840220278501
1682097024779785200,2.88478515625,0.5233499203652143,8.201769164019822,-7.6419374789536
1682097024799914200,2.904914306640625,1.1984154198080301,10.822780514943599,-5.218989032262564
1682097024820043000,2.92504296875,0.7425292623847722,11.917297753381728,0.27706162214577196
1682097024840172000,2.945172119140625,1.1880085920840502,11.607939543265104,4.698014608857036
1682097024860301000,2.965301025390625,0.40123979047834873,10.132713845723867,5.585036513328552
1682097024880430000,2.98543017578125,-1.1405027445435523,8.01428785955608,4.796746201243996
1682097024900558800,3.005558837890625,-1.687043570882082,5.3637002855360505,5.91175268548131
1682097024920688000,3.025688232421875,-0.9681354225814341,3.781098209120333,8.99932239449024
1682097024940817200,3.045817138671875,-0.2468131988763809,3.564231820218265,10.072764111673832
1682097024960946200,3.0659462890625,1.2929010451883076,2.1508242809474467,10.23134723843336
1682097024981075000,3.086074951171875,3.6942677746683357,1.8232032689094542,10.265027389717101
1682097025001204000,3.106203857421875,5.847371106463671,2.4030025139883158,10.436074861252306
1682097025021333000,3.1263330078125,6.179758894512057,2.441238721141219,9.914737449753284
1682097025041461200,3.146461181640625,3.894183028769493,2.814901645646989,6.839227596372366
1682097025061590300,3.16659033203125,1.1151911931544543,3.3547686933100223,2.0086101051867007
1682097025081719000,3.186718994140625,0.07272506273733452,3.8088001627773043,-1.8044903851330278
1682097025101848300,3.206848388671875,0.9578250409692526,2.976450928735733,-4.708185874259471
1682097025121976300,3.226976318359375,1.5654577571302652,0.7893062111288308,-8.531007548126578
1682097025142105300,3.247105224609375,1.163817569157481,1.0494885946661234,-9.469351643556356
1682097025162234400,3.267234375,-0.07633386435164138,1.9386106862872838,-7.4044912433594465
1682097025182363400,3.28736328125,-1.0734008006513118,2.073722336566448,-6.425344012898206
1682097025202492200,3.3074921875,-1.995297034627199,0.26090192998349665,-6.0911097202003
1682097025222621200,3.32762109375,-2.02230077688694,-1.6411019039183854,-5.937381632256508
1682097025242750200,3.347750244140625,-2.654140882587433,-3.1052544187813997,-4.702678509014844
1682097025262879500,3.36787939453125,-3.2533681739747524,-4.440241040027141,-2.8649487021028994
1682097025283008300,3.38800830078125,-3.7461318174183367,-7.188845920684933,-1.7866250580966472
1682097025303137300,3.40813720703125,-3.3626807816088196,-10.555692589801549,-1.7124579981237649
1682097025323266300,3.428266357421875,-2.206616895318031,-12.15191081137657,-1.602428182131052
1682097025343395300,3.448395263671875,-1.6138777969062328,-11.288852550816536,-0.23370938715338704
1682097025363524000,3.468524169921875,-2.1720798349440096,-9.8042242341578,0.588002717539668
1682097025383653000,3.488653076171875,-1.4697802916169165,-8.231580364915729,-0.08921265341341494
1682097025403782400,3.508782470703125,-2.482946111536026,-6.725309540769458,-0.30666122611761093
1682097025423911400,3.528911376953125,-2.6735230439275504,-4.338646459424496,-2.0458973410516976
1682097025444040200,3.549040283203125,-3.427474448558688,-1.0479267521768807,-4.523205738961696
1682097025464169200,3.569169189453125,-3.2168168511688706,0.13370470609068869,-6.147037943649291
1682097025484298200,3.58929833984375,-0.9596002339482307,-0.30357319697439666,-7.387880300298333
1682097025504427300,3.60942724609375,0.344198052829504,1.6108090569853781,-7.545265741705894
1682097025524556000,3.62955615234375,1.2369617158234119,5.670092631584406,-8.74758576773703
1682097025544685300,3.649685302734375,0.7864566669166088,9.753719204801321,-7.803928952851891
1682097025564814300,3.669814453125,-0.7785907558470964,11.824261742287874,-2.537989953365922
1682097025584943400,3.689943359375,-1.1499053636610508,11.648297272616624,2.5295956345081327
1682097025605072400,3.710072265625,-0.6319844826072454,10.380968475580215,3.4233056384414433
1682097025625200400,3.730200439453125,-0.4536018093457445,8.69126416105628,3.31318288346827
1682097025645329200,3.7503291015625,0.07779343377649783,6.515500669163465,5.433552989441156
1682097025665458200,3.770458251953125,0.49891281372308727,4.678614911860227,8.798008379507065
1682097025685587200,3.790587158203125,0.7989151664733887,4.1666915176555515,10.570333694094419
1682097025705716500,3.810716552734375,1.1543757870733737,3.225887461853027,11.356610328269005
1682097025725845200,3.83084521484375,2.3700784417688845,1.8845853738501668,11.254216121721267
1682097025745974300,3.850974365234375,4.408658737805485,2.1068720342352987,10.130486817324162
1682097025766103300,3.871103271484375,5.9586202351182695,2.697578750036657,10.201404520112275
1682097025786232300,3.891232421875,4.705283138555288,2.7742244750827547,8.58864958975613
1682097025806361000,3.911361083984375,3.1104443886399267,2.8409777516677974,4.759167873477936
1682097025826490000,3.931489990234375,2.4485148496240376,2.616638250406086,2.0309534544199703
1682097025846619400,3.951619384765625,1.2858230696260928,1.7237696657329797,-3.506653199213743
1682097025866748400,3.97174853515625,0.8365548690378666,0.9869809928268194,-5.3242801292955875
1682097025886877200,3.991877197265625,0.025897790311835703,1.5089812521487473,-5.697576266315579
1682097025907006200,4.012006103515625,-0.13807692982554434,1.5016180299043655,-8.368958791083097
1682097025927135200,4.03213525390625,-0.25733342384696006,0.9009370325773954,-9.134229462108015
1682097025947264300,4.05226416015625,0.2096095496416092,1.2014005730986594,-7.205700609374046
1682097025967393300,4.072393310546875,0.21387772848010062,0.7456564544945955,-5.101330621087551
1682097025987522300,4.092522216796875,-0.717264472746849,-0.4871089786827564,-4.608015188980103
1682097026007651300,4.1126513671875,-1.7837948031067847,-1.765201746317744,-4.393958012279868
1682097026027780400,4.1327802734375,-2.093888341760635,-2.996432225012779,-3.806172736883163
1682097026047909400,4.152909423828125,-2.5981390093803403,-4.265699296635389,-2.3076620253443716
1682097026068038400,4.173038330078125,-3.5193431694388386,-5.959536180919408,-0.9493950662761926
1682097026088167400,4.19316748046875,-4.33563383360505,-7.97815973059833,0.15654957510530948
1682097026108296400,4.21329638671875,-4.177722907018661,-9.070749215844273,0.26192133615911006
1682097026128424400,4.233424560546875,-3.4095582681179044,-8.95259045393169,0.7518845352292061
1682097026148553500,4.253553466796875,-3.56275794827342,-8.08478295301795,0.43642157849669455
1682097026168682200,4.27368212890625,-4.02283629668951,-7.611988915413618,-1.0941127492904663
1682097026188811300,4.293811279296875,-3.9272190369307993,-6.968561832293868,-2.205748295789957
1682097026208940500,4.3139404296875,-3.26829277138412,-5.851172836834192,-2.855053331032395
1682097026229069600,4.334069580078125,-1.887762542581558,-2.7352485554784534,-2.933220274296403
1682097026249199400,4.354199462890625,-2.6340724925488233,-0.08531623049676418,-4.647805932098627
1682097026269327400,4.374327392578125,-3.0389854185819623,-0.09334200830310582,-6.914957667878269
1682097026289457400,4.39445751953125,-1.7691285643726586,1.1985451836675405,-7.578409301894903
1682097026309585400,4.41458544921875,-0.058380804232880466,4.039653283716738,-7.171763268458843
1682097026329714200,4.434714111328125,0.9755559279710054,6.946452291816472,-6.607640023678541
1682097026349843500,4.454843505859375,0.758279789224267,7.683371897625923,-4.478315626877546
1682097026369972500,4.474972412109375,0.30991467495560643,7.736352961707115,-2.052952520260215
1682097026390101500,4.4951015625,0.8824643872976302,8.401345979946852,0.4729389990329742
1682097026410230300,4.515230224609375,1.1331364535592496,8.85683700057268,2.5885586956083775
1682097026430359300,4.535359375,1.0966397835500539,8.40763251287043,3.834573486459255
1682097026450488300,4.55548828125,0.4407061239480972,7.589592374688387,5.484854722133279
1682097026470617300,4.575617431640625,-0.3567243569254875,6.141201492580771,7.34788205190897
1682097026490746600,4.59574658203125,0.2472889996945858,5.022103355115652,9.086640612459183
1682097026510875400,4.61587548828125,2.418375731948018,4.276875355166196,10.73741927626133
1682097026531004400,4.63600439453125,4.443828835386038,3.9853751655623313,11.438964786350727
1682097026551133400,4.656133544921875,4.811464462426304,4.328164228376746,11.02060142711401
1682097026571262500,4.676262451171875,4.474790959882736,4.0229350808888675,10.191987872469424
1682097026591391200,4.69639111328125,4.059661175739765,3.7279111010730266,8.423815001386403
1682097026611520300,4.716520263671875,2.5348557469934225,4.023464365459978,5.26371840082705
1682097026631649500,4.7366494140625,0.3870143177816644,3.8786315316334363,1.438654500991106
1682097026651778600,4.756778564453125,-0.38104280562400816,3.7200069038197396,-0.6035398938894272
1682097026671907300,4.7769072265625,0.257546189814806,2.9493907801136374,-3.4521237366467714
1682097026692036400,4.797036376953125,0.04216975177612621,0.8355833936572075,-6.850811651182174
1682097026712165400,4.817165283203125,0.8857903168499469,0.13951952984929084,-8.247463578224181
1682097026732294400,4.83729443359375,2.350496958464384,0.33454934999644753,-7.595579632404446
1682097026752423200,4.857423095703125,2.7488632393330334,1.2069412560909987,-6.038408642104268
1682097026772552400,4.877552490234375,1.8553765227615833,0.6865221284806728,-5.8430327849984165
1682097026792681500,4.897681396484375,0.06765840873122216,-0.8384323533475398,-7.269833182066678
1682097026812810500,4.917810546875,-1.397180334830284,-2.1713287243157624,-7.939240509617328
1682097026832939300,4.937939208984375,-2.9814895074248313,-3.108416682204604,-6.535397209766507
1682097026853068300,4.958068359375,-4.433549433434009,-4.283219755756854,-4.039240319001674
1682097026873197300,4.978197265625,-5.978316869235038,-5.921473284506797,-1.838468642580509
1682097026893326300,4.998326416015625,-5.999792203462124,-8.025223095068336,-0.6281015036940574
1682097026913455400,5.018455322265625,-5.2236757287740705,-9.816630126744508,-0.6006669688016176
1682097026933584400,5.03858447265625,-5.528014064902067,-10.777723229598998,-0.515681577694416
1682097026953713400,5.05871337890625,-5.776394951486587,-9.715545249229669,-1.000696798968315
1682097026973842400,5.078842529296875,-5.301083962625265,-7.891506114017963,-1.4316519287526606
1682097026993971500,5.098971435546875,-4.995039991623163,-6.6690335267961025,-1.0653051724791527
1682097027014100200,5.119100341796875,-4.425004892450571,-5.435403585743904,-1.4860989737331867
1682097027034229200,5.139229248046875,-3.406785880795121,-3.8649049118369816,-2.6864275336861607
1682097027054358500,5.159358642578125,-2.724384047114849,-1.3201432723790407,-3.924343189233541
1682097027074487600,5.179487548828125,-2.743122065332532,-0.034870822373032566,-5.115660759735107
1682097027094616300,5.1996162109375,-2.1284569663167,0.5356406621396541,-6.031394963949919
1682097027114745300,5.219745361328125,-1.234841070407629,2.61199685434103,-6.942897229683399
1682097027134874400,5.239874267578125,-0.8448913202285766,5.703716084244847,-8.069177387607096
1682097027155003600,5.260003662109375,-0.7153028172850608,8.255926870664954,-8.294788223978877
1682097027175132400,5.28013232421875,-1.4334779751360416,8.656838159841298,-5.59968054023087
1682097027195261400,5.300261474609375,-0.5644914935708045,9.128595255613327,-2.757259896278381
1682097027215390500,5.320390380859375,0.5576164201695472,9.163059250751138,-0.6851403187334537
1682097027235519500,5.34051953125,-0.30655656016673893,8.038141028830408,1.3153227203547955
1682097027255648300,5.360648193359375,-0.3401472796013579,6.8966188781112425,3.3102579359322784
1682097027275777300,5.38077734375,0.5933341416954994,6.095764852529764,7.153802664354443
1682097027295906600,5.400906494140625,1.9592489851683377,4.947785488495231,10.86343751950264
1682097027316035600,5.42103564453125,2.3096610902070998,3.3875583254948256,11.91957037448883
1682097027336164400,5.441164306640625,2.3250503825187683,2.5811215313449503,10.873266839599609
1682097027356293400,5.46129345703125,2.579745274555683,3.491709312582016,10.623389576977491
1682097027376422400,5.48142236328125,3.296959478420019,4.349813165605068,10.275670364284515
1682097027396551400,5.501551513671875,4.12589685819149,3.7104064240425823,9.156243725517392
1682097027416680400,5.521680419921875,4.790756605440378,3.7223911686077713,7.23001204380989
1682097027436809500,5.5418095703125,3.7288381527900696,4.185235182344913,3.783395672407746
1682097027456938500,5.5619384765625,1.4600935948610305,4.134856701977551,-0.04311608814895153
1682097027477067500,5.582067626953125,0.4689058345267549,3.0685517048060893,-3.441702295875549
1682097027497196500,5.602196533203125,1.1888077065724878,1.4272007945626972,-6.312144919219612
1682097027517325300,5.6223251953125,1.4368107728205621,0.42819618646502494,-7.820059418919682
1682097027537454300,5.642454345703125,0.16171726006679235,1.1655173588126897,-8.493281920844316
1682097027557583400,5.662583251953125,-1.1326444322586058,1.8206407249450682,-7.619848396742343
1682097027577712600,5.682712646484375,-1.9214473700404167,1.4795587583094834,-6.211773158410191
1682097027597841400,5.70284130859375,-1.997872438073158,0.03371697616279125,-5.740643254625797
1682097027617970400,5.722970458984375,-2.0765981842637062,-1.3813807081520557,-5.564843620127439
1682097027638099500,5.743099365234375,-2.530918992066383,-2.2095628856420517,-4.629736022400856
1682097027658228500,5.763228515625,-3.677265786463022,-2.992823386865854,-2.977299069997668
1682097027678357200,5.783357177734375,-5.031088625603914,-4.519444340601563,-1.1791957555532455
1682097027698486300,5.803486328125,-5.038492179858684,-6.95037501821816,-0.644521892619133
1682097027718615600,5.823615478515625,-3.4680174713492393,-9.431831183457374,-0.0511561867415905
1682097027738744600,5.84374462890625,-2.8305986887335775,-10.56725560182333,1.0606132152706385
1682097027758873300,5.863873291015625,-4.1387189303636545,-10.975938109523057,1.9246026192009449
1682097027779002400,5.88400244140625,-5.703284122568369,-10.761861643600463,0.6637023939073086
1682097027799131400,5.90413134765625,-5.015737911736965,-9.877816709113121,-1.7444909667223691
1682097027819260400,5.924260498046875,-3.855954128140211,-8.008406400302052,-2.635921335285902
1682097027839389400,5.944389404296875,-4.522747473800182,-6.018415655389428,-2.881785270613432
1682097027859518500,5.9645185546875,-6.535237635290622,-3.479160796654224,-5.090744345143437
1682097027879647500,5.9846474609375,-7.150891160821915,-1.6691817509770392,-7.661265864279866
1682097027899776500,6.004776611328125,-5.225988097369671,-1.2562018383443354,-6.7687605599611995
1682097027919905500,6.024905517578125,-3.909714944422245,0.5711620573759079,-5.695134718382358
1682097027940034300,6.045034423828125,-3.7464907138586043,2.323717672610283,-5.5192567579507825
1682097027960163300,6.065163330078125,-3.9395162084460256,2.949643001309037,-4.799832476821542
1682097027980292400,6.085292236328125,-4.118837002807855,3.248279618664086,-2.8973674551486965
1682097028000421600,6.105421630859375,-4.082757973688841,4.785662789432704,-1.791392418628931
1682097028020550400,6.12555029296875,-4.671119003146886,4.0609851178199055,-1.217179156988859
1682097028040679700,6.1456796875,-4.95776503071785,3.900102774207294,-1.1205074197411538
1682097028060808700,6.16580859375,-5.054458979797363,4.019205246710777,-0.6993465387403964
1682097028080938000,6.18593798828125,-4.503853388237953,5.167345354264974,-0.4652291553080082
1682097028101066800,6.206066650390625,-4.131564382433891,5.484697485744952,0.4901099140644073
1682097028121195800,6.22619580078125,-3.2592706760168073,5.0937902887105935,1.8587497985869645
1682097028141324800,6.24632470703125,-2.124203838916868,4.383803990273178,3.5333401306092735
1682097028161453800,6.266453857421875,-1.0587234560012817,3.9463270575046536,4.62422573454678
1682097028181582600,6.28658251953125,-0.5461773267883807,3.907894743257761,5.249871661782264
1682097028201711600,6.306711669921875,-1.1591875712692736,3.4099686024844647,6.864288387870788
1682097028221841000,6.3268408203125,-1.5850643748760223,2.7213305047631264,7.7740265665411945
1682097028241970000,6.346969970703125,-1.0613269164979457,2.5713474485665557,7.829026569229364
1682097028262098700,6.3670986328125,0.23404154171720146,3.397057390724122,6.871479176157712
1682097028282227700,6.387227783203125,1.109954461544752,3.302533771421015,5.143520242041349
1682097028302356700,6.407356689453125,1.278314301431179,4.286805797550082,3.781547414192557
1682097028322485800,6.42748583984375,2.4722046450302004,5.936154136288166,3.9487189210772513
1682097028342614800,6.44761474609375,3.7459143752753734,5.225432801574469,4.7552398863792416
1682097028362743800,6.467743896484375,2.3866334168590604,5.976249999833106,3.7764176500886677
1682097028382872800,6.487872802734375,-1.027701564141363,6.780466195324063,1.9854981096684932
1682097028403001900,6.508001953125,-2.7602152389526364,6.143251995369791,-1.155029867067933
1682097028423130600,6.528130615234375,-0.5102877558268606,4.916299632385373,-3.0793752966374157
1682097028443259600,6.548259765625,2.167427917484939,4.315176444248855,-2.890813211199641
1682097028463388700,6.568388671875,1.8183656196199356,3.6872277930289505,-2.470966919928789
1682097028483518000,6.58851806640625,-0.01312602355480194,2.677946705588698,-3.6534295683234927
1682097028503647000,6.60864697265625,-0.9464414771676063,0.640532530722022,-5.083123348745703
1682097028523775700,6.628775634765625,0.1720700925812125,-1.5204302824020386,-5.575244018110633
1682097028543904800,6.64890478515625,1.8329940105617046,-3.240526228058338,-4.072747451806068
1682097028564033800,6.66903369140625,1.9436368438862264,-4.26903574758172,-2.2142530892848966
1682097028584162800,6.689162841796875,0.13935001850128173,-4.744812015867233,-1.7273825955331326
1682097028604291600,6.70929150390625,-1.3086634085960684,-5.146584890308976,-1.0634902320116757
1682097028624420900,6.7294208984375,-1.1988422669179737,-5.804037576171756,-0.7763041062146425
1682097028644550000,6.7495498046875,-0.5019815536439418,-6.569962911713123,-0.73917644482553
1682097028664679000,6.769678955078125,-0.9433378120638429,-6.6792310956835745,-0.5085924962162971
1682097028684807700,6.7898076171875,-3.1689807487607,-6.91685911758542,-1.6391262199312449
1682097028704936700,6.809936767578125,-5.410619273099303,-7.489797536984086,-3.8404099375277756
1682097028725065700,6.830065673828125,-6.117864456135035,-7.865825729316472,-5.135120077964663
1682097028745194800,6.85019482421875,-5.94196603743732,-6.857032133132219,-5.03199171192348
1682097028765323800,6.87032373046875,-6.749186675441265,-5.06322973075211,-5.461896455872059
1682097028785452800,6.890452880859375,-7.857804919946193,-1.4907932690292596,-7.085778344920278
1682097028805581800,6.910581787109375,-10.280144294828176,0.38207273319363594,-6.8683017151653765
1682097028825710800,6.9307109375,-10.68894721403718,0.7189104863882064,-7.245787120568752
1682097028845839600,6.950839599609375,-8.267398112750053,1.496989785581827,-8.510746850386262
1682097028865968600,6.97096875,-6.647862143951654,2.6313468669772146,-8.366109246870876
1682097028886099000,6.991098876953125,-6.1340638957858085,3.3503760113090273,-7.939150493246316
1682097028906227700,7.011227783203125,-5.961680207210779,3.790542037031054,-7.6503247835487125
1682097028926356700,7.031356689453125,-5.378402180105447,3.230087836152315,-6.276916369450092
1682097028946485800,7.05148583984375,-3.4024425908938047,2.5468624111294744,-4.427810012999177
1682097028966614800,7.07161474609375,-2.3975251054905353,1.861199529826641,-2.3745710770130155
1682097028986743800,7.091743896484375,-3.086668376255035,1.2003513563066721,-0.7765817541122436
1682097029006872600,7.11187255859375,-3.4017513937592505,1.2645423811882734,0.41762160095870493
1682097029027001900,7.132001953125,-3.263150732320547,2.032159030817449,1.656681165844202
1682097029047131000,7.152130859375,-2.9067338339090347,2.8773434887737035,2.7841338746786115
1682097029067260000,7.172260009765625,-2.6170424472928047,3.1273359022080895,4.238358285245299
1682097029087389000,7.192388916015625,-2.2628315344929693,3.890613645850122,5.305888732558489
1682097029107518000,7.21251806640625,-2.6884628389060494,4.923918875217438,5.741585503911971
1682097029127647000,7.23264697265625,-3.226961813086271,5.393059651011228,5.511842097780108
1682097029147776000,7.25277587890625,-2.4790976194143295,5.253760485914349,5.450392480561137
1682097029167904800,7.27290478515625,-0.7791571575582027,4.900606388691068,5.507007517230511
1682097029188033800,7.29303369140625,0.034627076745033264,5.971324818390608,5.90431113730371
1682097029208162800,7.313162841796875,-0.9033354720212519,7.192989596360921,5.543171886545419
1682097029228292000,7.3332919921875,-1.5178700765252113,6.6611892430365085,5.4243280649781225
1682097029248420900,7.3534208984375,0.05921433244757354,6.297918825468421,6.77843965793252
1682097029268550000,7.3735498046875,0.06261296190991997,6.612725364118814,6.988375370788574
1682097029288679000,7.393678955078125,-1.793176525566727,6.251678467819095,5.18589106478095
1682097029308808000,7.413807861328125,-2.1085376293599603,5.216232427030802,1.6976935597121714
1682097029328936700,7.433936767578125,0.7882534141402691,4.101671056212485,-0.9391764546006918
1682097029349065700,7.454065673828125,3.9745582957327366,2.918741082566976,-1.4508335990846157
1682097029369195000,7.474195068359375,4.147567422729731,2.0883608105108142,-3.072289722290635
1682097029389324000,7.494323974609375,2.258199783039093,2.0634750833183526,-4.991058228510618
1682097029409452800,7.514452880859375,1.5935995635092257,1.5785399415433405,-7.95488406895101
1682097029429581800,7.534581787109375,3.6276200042843816,0.5684229878008366,-8.411843993085622
1682097029449710800,7.5547109375,5.034057996803522,0.376304086664319,-7.018701535469293
1682097029469840000,7.57483984375,2.616648479539156,0.31571839279830455,-6.138551270332932
1682097029489969000,7.594968994140625,-0.5020844294965267,-0.2957932106226682,-6.075515845227241
1682097029510099000,7.615098876953125,-2.2948984053611756,-1.0845464640438556,-5.928271274083852
1682097029530228000,7.63522802734375,-2.6168647526383397,-2.1668261521995067,-5.107258842092752
1682097029550357000,7.65535693359375,-2.153666372505575,-2.797354590779543,-3.758199856352806
1682097029570485800,7.67548583984375,-3.0205788242757317,-2.9924831951260566,-2.390393500044942
1682097029590614800,7.69561474609375,-5.009577051019669,-3.6004099257975817,-1.121420442932844
1682097029610744000,7.715744140625,-5.928474687701463,-4.57685549608469,-0.34374154123365874
1682097029630873000,7.735873046875,-4.384920719343423,-5.624847714713216,0.07033610350787639
1682097029651001900,7.756001953125,-3.425286583125591,-6.493472377228737,0.9520417813926935
1682097029671131000,7.776130859375,-4.84135048212409,-5.884041087213158,1.2775024005264044
1682097029691260000,7.796260009765625,-5.990556757605075,-5.374501081013679,0.7050894663065671
1682097029711389000,7.816388916015625,-5.52549126842618,-4.589012966868281,0.11972411153316496
1682097029731517700,7.836517578125,-4.7993935008823865,-3.334365372228622,-0.5412719460248947
1682097029751647000,7.85664697265625,-5.203500371229648,-2.4563866059124466,-1.8905764309585094
1682097029771776000,7.87677587890625,-6.158869835740328,-1.010473219834268,-3.2862200577408074
1682097029791905000,7.896905029296875,-5.694381854188442,0.713057084184885,-4.382552821168304
1682097029812033800,7.91703369140625,-3.5396868692874905,1.4403539983853697,-4.5621588622123
1682097029832162800,7.937162841796875,-2.437943771249056,1.5197332400485872,-4.681427631193399
1682097029852291800,7.957291748046875,-0.654462271875143,1.878729049037397,-4.634603920698166
1682097029872420900,7.9774208984375,0.2197778193693608,3.575796001283824,-4.006626920166611
1682097029892550000,7.9975498046875,-0.26862762886472047,5.358651769974827,-3.0301117917746305
1682097029912679000,8.017678955078125,-0.6049989335913211,7.598825482457876,-2.1343249815672634
1682097029932808000,8.037807861328124,-0.948463995971158,8.88337780149579,-1.4676543855041264
1682097029952937000,8.05793701171875,-0.9473018203239887,9.202718476444483,-0.19316227270960806
1682097029973065700,8.078065673828124,0.19568499612025916,10.185249504125117,1.7798861052304504
1682097029993194800,8.09819482421875,1.1196656351547687,11.141803209984301,3.9454847614616155
1682097030013323800,8.11832373046875,1.0232511606037615,11.268639783871173,5.047286311689019
1682097030033453000,8.138453125,0.07991473677940666,10.61997830722928,5.088419117066264
1682097030053581300,8.158581298828125,-0.6996260132689028,10.071994880867004,4.809602760207653
1682097030073710000,8.1787099609375,-0.8085434841055422,9.364041841822862,5.2040726181596515
1682097030093840100,8.198840087890625,-0.626916093301773,7.8883508648574345,6.302130305683613
1682097030113969200,8.21896923828125,-1.1273300323028117,6.226552209869027,6.927241979911923
1682097030134098200,8.23909814453125,-0.9102888713557272,5.082435366481542,6.827870920577645
1682097030154227200,8.259227294921875,-0.21158391845449803,4.61614150455147,5.58785566240251
1682097030174356200,8.279356201171876,0.2895860996108502,2.552803491616249,4.112149487867951
1682097030194485200,8.2994853515625,0.8096062179662287,1.4470888595983384,4.766866026765108
1682097030214614300,8.3196142578125,1.3868097474634646,1.922808136999607,5.990457973405719
1682097030234743000,8.339742919921875,1.1312531970959157,2.8959134569481013,5.676103854697942
1682097030254872000,8.3598720703125,0.35143684497661887,2.4057860072270034,2.4254829336047172
1682097030275001000,8.3800009765625,0.8936684298139065,0.9131962101697921,-1.6667320197373627
1682097030295130400,8.40013037109375,1.2245021202880888,1.132010226008296,-3.1552135046929117
1682097030315259100,8.420259033203125,0.4422223737299442,1.6775766543567179,-4.236804041540623
1682097030335388200,8.44038818359375,0.07987608526945114,0.9010685500025749,-6.580813976073265
1682097030355517200,8.46051708984375,-0.6986520536702125,-0.024203297886252403,-9.514587792599201
1682097030375646200,8.480646240234375,0.022878186762332914,0.03777706520855426,-9.475962586128711
1682097030395775000,8.50077490234375,0.9898281989514827,0.38278526537716384,-7.664104887098073
1682097030415905300,8.5209052734375,0.6489336446467787,-0.39573417879939077,-6.496643408480287
1682097030436034300,8.541034423828124,-0.4260088324885815,-1.4359417349010706,-5.788984383946657
1682097030456163000,8.5611630859375,-2.575968094104528,-2.2547914359003305,-5.187417251434922
1682097030476292000,8.5812919921875,-4.267883070415258,-3.5312943039953706,-4.449502789369225
1682097030496421000,8.601421142578126,-4.725188446986675,-5.290573090004921,-3.112765525063872
1682097030516550100,8.621550048828125,-4.137115002298355,-7.269546181818843,-1.417294317576289
1682097030536679000,8.641678955078126,-4.538845206642151,-8.731046136346459,-0.467454430142045
1682097030556808200,8.66180810546875,-4.825719197750091,-9.25873087104559,-1.7838924182623623
1682097030576937200,8.681937255859374,-3.3909517673254013,-9.680921095094083,-3.0884581822812556
1682097030597066200,8.702066162109375,-0.5837140804350376,-8.31261204996109,-2.6074749930024144
1682097030617195000,8.722195068359374,0.4457809429943561,-6.801190418922901,-1.6931623460233212
1682097030637324000,8.742323974609375,-0.5377028553664684,-5.231100910338759,-2.1487340306699276
1682097030657453000,8.762453125,-2.2851181851029394,-3.6763825738877056,-3.683761578223109
1682097030677582300,8.782582275390626,-3.424198203366995,-1.3729752833783626,-4.722221998396516
1682097030697711000,8.802711181640625,-3.7565538427114484,-0.0546983893930912,-5.48177429177463
1682097030717840100,8.822840087890626,-2.3301672871410846,0.7300353992536663,-6.508464779177308
1682097030737969200,8.84296923828125,-1.3598042516380549,2.2413670139208435,-6.874279036009312
1682097030758098200,8.86309814453125,-0.6519821454972028,4.631642732805013,-7.1199407267630095
1682097030778228000,8.88322802734375,-0.5778489877939224,6.705804629832506,-6.467555261161923
1682097030798357200,8.903357177734375,-0.3099941699326038,8.815972490742801,-4.953717801153659
1682097030818486300,8.923486328125,0.06737315291590057,9.981180052953958,-2.1545009236335755
1682097030838615300,8.943615234375,0.293203194129467,10.513187327027321,0.1566185486882925
1682097030858744000,8.963744140625,0.0602647959151538,9.76787574044764,2.1797095991700886
1682097030878873000,8.983873046875,0.08919804036617278,9.214977654036879,4.50214190814495
1682097030899002000,9.004002197265624,0.4922445880055427,8.717844709467887,7.0363505894064895
1682097030919131100,9.024131103515625,0.3102431762576103,7.76739575022459,8.572137430894374
1682097030939260200,9.04426025390625,0.2379776390571147,6.817036222830414,9.465296230685711
1682097030959389200,9.06438916015625,0.7952443690061569,6.201439980444312,10.79624088306427
1682097030979518200,9.084518310546875,1.6429951703190802,5.911570899173617,11.748730992746353
1682097030999647200,9.104647216796875,1.5986498326361178,5.569572986736893,10.93570663689971
1682097031019776000,9.12477587890625,1.8363924208283424,5.420832624077796,9.751337278100848
1682097031039905000,9.144905029296876,1.6205775868058203,5.537700761657953,8.995462211930752
1682097031060034800,9.165034912109375,1.2430255459070205,5.182689053869247,6.935736836534738
1682097031080164900,9.185164794921874,1.034872551749274,4.173196077243984,3.1092367664158345
1682097031100294000,9.2052939453125,1.4972329466879366,2.89910494646579,0.8960732259333133
1682097031120423000,9.2254228515625,2.4154817640721795,2.9065254518553614,-0.44328737261295315
1682097031140551700,9.2455517578125,1.6192540831170976,2.475241528508067,-3.4464164649158713
1682097031160680700,9.2656806640625,0.36637379041090606,1.1772557274013757,-7.76720870321989
1682097031180809700,9.285809814453126,-0.5227263816393911,0.3143161247849464,-9.646548285371065
1682097031200938800,9.305938720703125,-1.0320704268753529,1.1623773072212933,-8.631856863319873
1682097031221068000,9.326068115234374,-1.0365023449081927,0.506171991071105,-8.790541696888209
1682097031241196800,9.34619677734375,0.07611402932219206,-0.8936199875622988,-9.936935253036022
1682097031261325800,9.366325927734374,0.7995370977640152,-1.9400304899573324,-8.489759591937064
1682097031281454800,9.386454833984375,0.3296352014046162,-2.0117530793875456,-5.868490466859936
1682097031301584000,9.406583984375,-1.3394728267490863,-2.2942957632929084,-4.291031890812516
1682097031321712600,9.426712646484376,-2.9055472544729706,-2.9577590877473354,-3.167013248080015
1682097031341841700,9.446841552734375,-3.985894513261318,-4.25088868099451,-1.8342045553952455
1682097031361971000,9.466970947265626,-4.256815732955932,-6.086294428873062,-0.555104072022438
1682097031382100700,9.487100830078125,-4.583113387435675,-7.866358228757977,1.0832675301492214
1682097031402229800,9.507229736328124,-5.561569128501415,-8.748417542386054,2.559184132564068
1682097031422358800,9.52735888671875,-5.368361263084411,-8.511504390755295,2.037685393023491
1682097031442487800,9.54748779296875,-3.982604824066162,-8.110320714378357,0.7730325371980666
1682097031462616800,9.567616943359376,-2.969502132511139,-7.323593998348713,-0.8684346929013729
1682097031482745900,9.587745849609375,-2.9608932941198347,-6.622415568006038,-2.147080418244004
1682097031502875000,9.607875,-2.6648165903806684,-5.41409250216782,-3.096523415315151
1682097031523004000,9.62800390625,-2.247348718678951,-2.827153516715765,-4.447394418913126
1682097031543132700,9.648132568359374,-2.6595138077974316,-1.6091957765698433,-5.653939953684806
1682097031563261700,9.66826171875,-2.1410803010463715,-0.928862565857172,-7.980985309413075
1682097031583390700,9.688390625,-0.29948563539981843,-0.11878858424872159,-8.229518171688914
1682097031603520000,9.70852001953125,0.7412889069348573,1.49601480306983,-6.999110115292668
1682097031623648800,9.728648681640625,1.4799837057232856,4.364960173593461,-6.0841112396150825
1682097031643777800,9.74877783203125,1.4516788177371025,7.3723577369958155,-5.294810873705148
1682097031663907800,9.768907958984375,0.8146189315617084,9.342005366581677,-4.166787086984515
1682097031684036600,9.78903662109375,0.009914660292863845,10.007124641549586,-3.0577158380150795
1682097031704165600,9.80916552734375,-0.6850806975007057,10.140495001119374,-1.3476052798002958
1682097031724295000,9.829294921875,-0.9078227004379034,9.601417934790254,1.4637544554561375
1682097031744424000,9.849423828125,-0.8285574405431747,8.826732954210042,3.312649799504876
1682097031764552700,9.869552734375,-1.079127946126461,7.634092610672115,4.945523388782143
1682097031784681700,9.889681640625,-0.8497861065328121,6.652070701557397,7.0343106080114834
1682097031804810800,9.909810791015625,-0.08074110460095107,6.093063776877522,9.412919562238454
1682097031824939800,9.929939697265626,0.4940051314046606,5.983133329606056,11.378080986320972
1682097031845069000,9.950069091796875,1.0341478176712988,5.870563181480765,11.65772327260971
1682097031865197800,9.97019775390625,2.815832496756315,5.822901851117611,10.680719483917951
1682097031885326800,9.990326904296875,3.7271407012224196,5.089740136536956,10.52184058908224
1682097031905455900,10.010455810546874,3.0204046367526054,4.7428997525051235,9.9457779001832
1682097031925585700,10.030585693359376,1.672451566427946,4.872656305491924,7.863236297345161
1682097031945714700,10.050714599609375,1.0214834933441133,4.170573035264015,3.8886014292448756
1682097031965844000,10.070843994140626,1.9715923339128494,3.494301374901831,0.3203384538143873
1682097031985973000,10.090972900390625,3.139852853953838,2.981564326226711,-1.0459843859374522
1682097032006101800,10.111101806640624,2.0468764152169228,2.29953366394639,-2.622673731178045
1682097032026230800,10.131230712890625,-0.19991934575438497,1.4887705310299992,-6.787681533530354
1682097032046359800,10.15135986328125,-1.7174620900213717,0.7884130616813898,-8.86058963110447
1682097032066489000,10.171489013671875,-1.4780571215748786,0.4452858529537916,-9.03806099820733
1682097032086617900,10.191617919921875,0.0025018267530947922,-0.3478302718520164,-8.633888076886533
1682097032106747000,10.211746826171876,1.0287526806294918,-1.368349377143383,-8.031520149385928
1682097032126876000,10.2318759765625,0.2999462386488914,-1.6693085922271012,-7.581153047645092
1682097032147005000,10.2520048828125,-1.729628182502836,-1.8947090007185934,-6.765844380253553
1682097032167135000,10.272135009765625,-2.5353064133703707,-2.259785006403923,-5.230847227838635
1682097032187264000,10.292263916015624,-2.530031687837839,-3.342088075435161,-3.760148652333021
1682097032207393000,10.31239306640625,-2.443409197048098,-5.19538311574757,-2.2116174800843
1682097032227521800,10.332521728515625,-3.7855975663661954,-7.320864865645766,-1.4290993216603993
1682097032247650800,10.35265087890625,-5.4748307562470435,-9.045406684795022,-0.8656821793228388
1682097032267779800,10.37277978515625,-6.022587388116121,-9.076559363427757,-0.9153951815187931
1682097032287908900,10.392908935546876,-4.641265132153034,-8.239172719740868,-0.5588976190865039
1682097032308038000,10.413037841796875,-3.3187130450665947,-7.757479336366057,-0.4716109652996063
1682097032328167000,10.4331669921875,-3.3877053327500817,-6.738001264560222,-1.7450608755648136
1682097032348296000,10.4532958984375,-4.059013525485992,-6.154920221331715,-3.723768009918928
1682097032368425000,10.473425048828124,-2.7757354641675946,-4.4242105272024865,-4.817426001179218
1682097032388554000,10.493553955078125,-1.292891108316183,-1.4701590618014335,-5.169689287042617
1682097032408682800,10.513682861328125,-0.28545707351472227,0.09333820891082287,-5.984162088131904
1682097032428813000,10.53381298828125,-0.014822342611290514,0.03771364458352327,-8.843685258054732
1682097032448941800,10.55394189453125,0.4961141229152679,1.2312646732255816,-9.364234734046459
1682097032469070800,10.57407080078125,0.7710089224159717,4.093070693388581,-8.60523072220087
1682097032489199900,10.594199951171875,0.9366852223068475,7.577774511122703,-7.885410719752311
1682097032509329000,10.614328857421874,0.272680630582571,8.676859788128732,-4.800249240928888
1682097032529458000,10.6344580078125,-0.10954996005389839,9.247282425314188,-1.2438742716908455
1682097032549587000,10.6545869140625,0.005903671085834503,10.060684382301568,1.4437866031825541
1682097032569716000,10.674716064453126,-0.49489364120960233,10.077022938162088,3.461074520343542
1682097032589845000,10.694844970703125,0.19611527729630468,9.65543360261619,6.098499245929718
1682097032609974000,10.71497412109375,2.4603145930111405,9.57221697474718,9.381307449400424
1682097032630102800,10.735102783203125,3.493946862375736,9.889036022263765,11.199200921463966
1682097032650232800,10.75523291015625,2.6427964817523955,8.09116242492199,11.422930181872845
1682097032670362000,10.775362060546875,2.5761189007520673,7.1261588706254955,10.808272681641578
1682097032690491000,10.795490966796875,2.8798949268221854,7.42880443136096,10.541503905451297
1682097032710620000,10.815619873046876,2.4502573093771933,8.102049145117402,10.238223553943634
1682097032730749000,10.8357490234375,2.4208558583259583,7.171010404264926,9.89900212048292
1682097032750878000,10.8558779296875,1.459389830505848,6.057564008951187,8.23297678771019
1682097032771006700,10.8760068359375,-0.04361709647364914,5.634139274671673,4.444263719671964
1682097032791135700,10.8961357421875,-1.5071242261052131,4.57008497903645,1.031564815440774
1682097032811265000,10.91626513671875,-1.4515689276218413,2.7750229319840667,-1.658221381023526
1682097032831394000,10.93639404296875,0.18324169413261115,1.915098001013696,-3.96496570700109
1682097032851522800,10.956522705078125,1.7862603164374826,1.1524451112717389,-5.234485876601934
1682097032871652900,10.97665283203125,2.030844148826599,1.4600754746824502,-7.111818210583925
1682097032891782000,10.996781982421876,1.8043759649731217,0.820455382630229,-9.716693250221013
1682097032911911000,11.016910888671875,1.748977318356186,-0.0717687666594982,-11.383596534872055
1682097032932040000,11.0370400390625,1.2635785045921801,-0.59014382122159,-10.148063390547037
1682097032952169000,11.0571689453125,-0.34871874512434003,-1.0254349343836306,-8.742260188800095
1682097032972298000,11.077298095703124,-2.2645617192864416,-1.9304151048719882,-7.755968931803107
1682097032992426800,11.0974267578125,-2.659151404225826,-2.5653672051131724,-6.902562296685576
1682097033012555800,11.1175556640625,-2.1637891225911674,-3.5104940925508736,-5.530381963077187
1682097033032684800,11.137684814453126,-2.3913540156401694,-5.0918227880299085,-4.052488507631421
1682097033052813600,11.1578134765625,-4.168822976726293,-7.257189389070868,-2.3911481178045273
1682097033072943400,11.177943359375,-5.506252314949036,-9.398357952922582,-0.6896031433612108
1682097033093072400,11.198072265625,-5.387961451089382,-9.869112009131907,-0.07941782010793685
1682097033113201700,11.21820166015625,-4.433557616740465,-9.158073279032111,0.29138123939931393
1682097033133330700,11.23833056640625,-2.8772669164061546,-8.782927130231261,-1.3799118046432732
1682097033153459500,11.25845947265625,-1.5459376486241816,-8.092104674208164,-2.00752990873456
1682097033173588500,11.27858837890625,-1.7216110263943671,-6.66998863556385,-2.227932070547342
1682097033193717500,11.298717529296875,-2.302189731413126,-4.884216394904255,-3.794622584342956
1682097033213846500,11.318846435546876,-2.02612355004549,-2.964641248476505,-6.163461839705706
1682097033233975300,11.338975341796875,-1.132776534205675,-2.288666232973337,-7.073826041319966
1682097033254104600,11.3591044921875,-0.1771358515381813,-0.8463777593940496,-7.025625197252631
1682097033274233600,11.379233642578125,-0.08555997612476349,0.9301748174995184,-6.712721861875057
1682097033294363400,11.39936328125,-0.06283025792241097,3.3922716177523133,-6.88715020802021
1682097033314492400,11.419492431640625,-0.10268063140683807,6.145051738268137,-6.635029550385474
1682097033334621400,11.439621337890625,0.09003039040393196,8.40964735982418,-5.914988598662615
1682097033354750700,11.459750732421876,0.4405360280781984,9.559335865864156,-3.987273984920978
1682097033374879500,11.47987939453125,0.844060714623332,10.013213021552563,-1.456017723724246
1682097033395008500,11.500008544921876,0.8993471330374478,10.183180296635626,1.5006319414764642
1682097033415137500,11.520137451171875,0.6251642811983823,10.000573320209979,3.483323761552572
1682097033435266600,11.5402666015625,0.5329062687397003,9.425506656610965,4.931468559944629
1682097033455395600,11.5603955078125,1.0560393314838408,8.856620727473496,6.577198708185553
1682097033475524400,11.5805244140625,0.743422996354103,8.170588428336382,8.101845146977901
1682097033495654700,11.600654541015626,-0.06715688894987105,6.983394659766555,8.143070306813716
1682097033515783400,11.620783447265625,0.16904024163233114,5.879653081387281,8.297473517540096
1682097033535912400,11.640912353515626,1.4770985056757926,6.103391109624504,8.851480441975593
1682097033556041500,11.66104150390625,2.6544845814585685,6.171425365930795,9.093594084858895
1682097033576170500,11.68117041015625,2.233465154755115,5.326392591404915,9.254321237909794
1682097033596299500,11.701299560546875,1.6742016249656677,4.743347788533568,9.14457257694602
1682097033616428500,11.721428466796874,1.2267571326732636,4.3205861943379045,8.346017475956678
1682097033636557600,11.7415576171875,0.677685326552391,4.359519443844259,5.747507295176386
1682097033656686600,11.7616865234375,-0.2020061254331842,3.9573657533913846,2.34876969628036
1682097033676816400,11.78181640625,-0.12502682105116544,3.1962741216167805,0.6594856529951095
1682097033696945400,11.8019453125,0.7794342939991503,3.1080054710552094,-0.49662382600307464
1682097033717074700,11.82207470703125,0.9495313329417258,3.211995130100846,-2.72846634799242
1682097033737203700,11.84220361328125,-0.20497071085982024,2.2885201025009154,-6.988461880028248
1682097033757332500,11.86233251953125,-0.06187401664350181,0.6246405495852232,-10.32724857583046
1682097033777461500,11.88246142578125,1.6304712043106555,0.400054964607954,-9.804831552401184
1682097033797590500,11.902590576171875,2.2925895438969133,-0.02703764452934265,-8.874335247862339
1682097033817719600,11.922719482421876,1.3258394381940364,-0.915167802503705,-9.257541369000077
1682097033837848300,11.942848388671875,-0.751022949963808,-1.634310344082117,-9.212267226034403
1682097033857977600,11.9629775390625,-2.000509800839424,-2.5484797831982373,-7.768502250161767
1682097033878107600,11.983107666015625,-2.623751589542627,-3.9201685338973995,-5.338265400028228
1682097033898236400,12.003236328125,-3.0611691933393477,-5.836812887570262,-2.8878637137442826
1682097033918365400,12.023365478515625,-4.057704196453094,-7.9148139243692155,-0.7958698074281215
1682097033938494500,12.043494384765625,-5.5082034490168095,-9.688546183145046,0.18299919061362743
1682097033958623500,12.06362353515625,-5.707290435600281,-9.535684356641768,-0.6570405979305506
1682097033978752500,12.08375244140625,-4.475402369779348,-9.356396880027651,-1.7407056029647587
1682097033998881500,12.103881591796876,-2.5230127489864826,-8.359961245635152,-2.43120364933908
1682097034019010600,12.124010498046875,-1.2636451400876045,-7.164595861047506,-2.178191011300683
1682097034039139600,12.1441396484375,-1.4544541276693344,-6.279072086179256,-2.8884517427653074
1682097034059268000,12.16426806640625,-2.4055939917862412,-4.946644501766563,-4.314418027096987
1682097034079398000,12.18439794921875,-2.3474340637624262,-3.18378961083591,-5.345771245613694
1682097034099527000,12.20452685546875,-2.1383213577270506,-1.6015157434612513,-5.970042377364635
1682097034119656000,12.224656005859375,-1.63850078150928,0.07933774060904979,-6.9899150014460085
1682097034139784700,12.24478466796875,-0.9774281515836715,0.8783978685110807,-7.59275639167726
1682097034159913700,12.264913818359375,-0.038463878428936005,2.5493720558628437,-7.29036334439814
1682097034180043000,12.28504296875,0.2660866391450167,4.645279043969512,-6.421525331392884
1682097034200172000,12.305172119140625,0.11383739158213138,7.118624383467435,-5.475746702048182
1682097034220300800,12.32530078125,-0.046174818132445214,8.155272785782813,-3.6118829214483497
1682097034240430800,12.345430908203125,0.014632920986413955,8.429425242483616,-2.478281626856327
1682097034260560000,12.365559814453125,0.1559691448688507,8.390000410068035,-1.5096435154497623
1682097034280689000,12.38568896484375,-0.15190613321363924,8.920237751859426,0.2833212670624256
1682097034300818000,12.40581787109375,0.6822051420643925,9.055167615830898,3.5356466539859768
1682097034320947000,12.425947021484374,5.299982723385095,9.192243259659408,7.584654918286204
1682097034341076000,12.446075927734375,7.498972777086496,8.739590092808008,10.160890138894318
1682097034361204700,12.466204833984374,3.6106019417271016,6.83476301817894,9.41604441626072
1682097034381333800,12.486333740234375,0.4547323112130165,5.360128856790065,7.16240624204874
1682097034401464000,12.506464111328125,1.2097767717778682,5.003970317053795,8.060680777418613
1682097034421592800,12.5265927734375,3.953358855837583,5.7818625692427155,8.51445797986388
1682097034441721900,12.546721923828125,5.756441712260246,4.8995820140793915,8.562001236805319
1682097034461851000,12.566850830078126,5.761043068575859,4.498297215415537,7.580478509384394
1682097034481980000,12.58697998046875,4.0447757412970065,4.446145880156755,6.751771431237459
1682097034502109000,12.60710888671875,1.7772271151542662,5.43513119854331,5.050376094397902
1682097034522237700,12.62723779296875,-0.47865036241710185,4.672663309979439,2.7321383145034313
1682097034542367000,12.647366943359375,-0.9955787253022194,2.532400755056739,-0.03655833706855774
1682097034562496000,12.66749609375,0.5124105931997299,1.9975658563420176,-1.123663837945461
1682097034582625800,12.687625732421875,1.2016577627301215,3.2649139426007867,-1.6884487615048884
1682097034602754800,12.7077548828125,-0.5537175495674833,2.770606284585595,-3.3911095882356164
1682097034622883800,12.7278837890625,-1.0217197132527827,1.604526031193137,-6.082279932534695
1682097034643013000,12.74801318359375,0.6255038884162902,1.4749842900007963,-6.175159291762113
1682097034663142000,12.768141845703125,2.0780852079510685,1.7859218782633541,-5.267870844331384
1682097034683271000,12.78827099609375,1.5003268210500478,1.4205050963163375,-5.942463465565442
1682097034703400000,12.80839990234375,-0.7270446930050849,-0.1726397091627121,-8.235455160522461
1682097034723529000,12.828529052734375,-2.654599147748947,-0.9922270767867565,-8.778990375304222
1682097034743658800,12.84865869140625,-4.296737408977747,-1.2406570632100105,-7.138301728361845
1682097034763788000,12.8687880859375,-5.763496891468763,-2.109604966330528,-5.0556753698498005
1682097034783917000,12.8889169921875,-6.280168649244308,-4.284196491834521,-3.29781521846652
1682097034804045800,12.9090458984375,-6.046730480247736,-6.432317943564057,-1.7417407912313938
1682097034824174800,12.9291748046875,-6.290022519260645,-7.343842421129345,-0.5951783082574605
1682097034844304000,12.949303955078125,-6.382140830987692,-7.911778502196073,1.3152473170310257
1682097034864433000,12.969432861328125,-6.556174040335416,-7.355443427073955,1.5216560248047113
1682097034884561700,12.989561767578126,-5.027618319144845,-6.8309355688452715,-0.7595154684990644
1682097034904692000,13.00969189453125,-4.3272441909223796,-6.4079521485924715,-3.5006314547061916
1682097034924821000,13.029821044921874,-3.4053730913877485,-5.008971486341953,-3.7548809410631656
1682097034944949800,13.04994970703125,-2.6805454899102448,-2.8883132110774516,-2.682555076166987
1682097034965078800,13.070078857421874,-2.5762077480793,-1.1646510973721742,-1.4965958178281784
1682097034985207800,13.090207763671875,-2.9161320691123604,0.6135042385429144,-0.8633890999495982
1682097035005337000,13.110337158203125,-3.919107334406674,2.3067916722506285,-0.4121984068661928
