time,seconds_elapsed,z,y,x
1682097465226123000,0.019123046875,-0.6004542028337717,-0.4954524441361427,0.6585460340574384
1682097465246254000,0.039254150390625,-0.5547101042687893,-0.2433046062335372,-0.7328603935465217
1682097465266384100,0.059384033203125,-0.4166021947830915,-0.5901151796489954,-1.0977379540503025
1682097465286515000,0.079514892578125,-1.2454209166109562,-0.6743155578583478,-1.0475836378276346
1682097465306645200,0.099645263671875,-1.747258677870035,-0.06888239756822585,-0.6151917532384396
1682097465326776000,0.119776123046875,-0.6124257956564426,-0.7162786765798926,-0.5832932246744632
1682097465346907100,0.1399072265625,1.2839525995790957,-0.7440525264292955,-0.05638356600105762
1682097465367037200,0.160037109375,2.5137363865971563,-0.846604553887248,0.5569464850187301
1682097465387168300,0.180168212890625,2.02026780975461,-1.134101060807705,-0.5976654488980769
1682097465407299000,0.200299072265625,1.5066086777985095,0.29796178683340546,-2.2425661605775353
1682097465427428900,0.220428955078125,1.7154852369904516,0.11777882268428802,-0.4090577707529068
1682097465447560200,0.240560302734375,2.8531927978575227,-0.7196613047555088,0.5469067370414734
1682097465467691800,0.26069189453125,2.685788066738844,0.05294365468025207,-0.7125327680498361
1682097465487822000,0.280822021484375,1.122813943117857,1.8162065418899058,-1.0386661718785761
1682097465507953000,0.300952880859375,0.03777706520855426,2.763761533257365,-0.6353741250455379
1682097465528083000,0.3210830078125,-0.4829606268316507,2.6212106728881595,-0.8301473400831222
1682097465548214000,0.341214111328125,-1.7934464285492897,2.305906413848698,-1.4749205771148204
1682097465568344800,0.3613447265625,-2.559446582892537,2.177899627138674,-2.824582789444923
1682097465588475000,0.381474853515625,-2.7404244968116283,2.318592000159621,-4.160717996203899
1682097465608606000,0.40160595703125,-3.0191064136356114,2.106611629733443,-3.572230710017681
1682097465628737000,0.421737060546875,-3.3406934062063693,1.7514853556543588,-3.190640791904926
1682097465648866800,0.44186669921875,-3.7871819129481907,1.3864958592087029,-1.9545926837950944
1682097465668998000,0.461997802734375,-5.39348518294692,0.7024427511900663,-2.35401110406518
1682097465689128000,0.4821279296875,-4.483431946977973,-0.06176058286428451,-2.213801253864169
1682097465709259000,0.502259033203125,-2.491439214593172,-2.1349773079961536,-0.8642237972080707
1682097465729389800,0.522389892578125,-1.0679711768180131,-3.3377643670171495,0.6603308716475963
1682097465749520100,0.54252001953125,-0.9212205266714095,-4.593647640931606,2.0595102713406086
1682097465769651000,0.56265087890625,-1.8131693661510944,-5.361850858277082,1.1565829417288302
1682097465789782000,0.582781982421875,-1.7691034299314021,-5.708005890393257,2.032787684109807
1682097465809912000,0.602912109375,-1.9606579751834272,-5.989973404759168,2.0572230371862648
1682097465830043000,0.62304296875,-1.808826076249778,-6.198014682170748,1.9749241086840628
1682097465850173000,0.6431728515625,-1.5648527769744396,-6.3978679769515985,0.802321760046482
1682097465870303700,0.6633037109375,-2.235257591129839,-6.094973994413018,1.3573305550009012
1682097465890435000,0.68343505859375,-2.3617139335274695,-5.129510421389341,1.2232207752406596
1682097465910564900,0.70356494140625,-4.132698939421773,-4.224133945059776,-1.1175368794977665
1682097465930696000,0.723696044921875,-4.695454402980208,-3.232600695756078,-2.544397482320666
1682097465950827000,0.743826904296875,-3.8768633529171344,-0.9324544528692961,-2.88997559133172
1682097465970957000,0.76395703125,-1.5166650846496224,1.4702753816574812,-2.666242823791504
1682097465991087900,0.784087890625,-0.2588911746829748,2.10415605327487,-3.395276644787192
1682097466011218000,0.804218017578125,-0.926540552650392,3.450035532195866,-5.563050306969881
1682097466031349000,0.824348876953125,-1.789415273337066,6.399118853795528,-5.496202630099654
1682097466051480000,0.84447998046875,-1.8022092884585261,7.6556375030040735,-3.264528450414538
1682097466071609900,0.86460986328125,0.0046820203363895415,7.956076493605971,-1.723355239713192
1682097466091741000,0.884740966796875,1.8428259610071778,8.14198192705512,-1.1921610355883836
1682097466111872000,0.9048720703125,2.165214333088696,8.96433759034872,-0.6524228750020266
1682097466132001800,0.925001708984375,1.7565914466217158,10.468077434712647,1.296705113646388
1682097466152132900,0.9451328125,0.5689619169831276,9.358421079331636,1.624627154457569
1682097466172263000,0.965262939453125,0.06716653356105089,5.770463223350048,1.4007441647917032
1682097466192394000,0.98539404296875,1.2106876030124722,2.3746906117394566,3.86985055154562
1682097466212524800,1.00552490234375,2.7920772348985072,1.4338824642837047,7.001742217361927
1682097466232655000,1.025655029296875,3.1901138454213736,0.7985457486391067,8.178764136007429
1682097466252786000,1.045785888671875,3.120115887826681,-0.07960019093751906,8.368124093824624
1682097466272916000,1.065916015625,3.1078643090188502,-0.7079913252279162,7.36516987131834
1682097466293047000,1.086047119140625,3.5350635934010146,-0.31199265027344225,7.068291203546524
1682097466313178000,1.10617822265625,3.279357478494942,0.9622019408792257,7.145439909678697
1682097466333308000,1.126307861328125,2.7382944990456104,1.8181038999438284,6.200146433502435
1682097466353439000,1.14643896484375,2.3172530066408217,1.7380565497606992,2.8899954650759696
1682097466373569000,1.166569091796875,1.9699545035779475,0.6877309197485446,-1.5446791729956864
1682097466393699800,1.186699951171875,0.7575485523402691,0.5066711727648974,-3.6154303847968574
1682097466413831000,1.206830810546875,-0.8087187676072121,2.3411112904816864,-5.338693270051479
1682097466433961000,1.2269609375,-1.7000420225344597,3.317186858412623,-6.696829880738258
1682097466454092000,1.247092041015625,-2.802574371254444,3.1067776828259226,-7.469487154883145
1682097466474222600,1.26722265625,-3.5583687734037635,2.713028540363908,-7.535106166741252
1682097466494353000,1.287352783203125,-4.3827451288700106,1.3332020759165286,-7.576720033633708
1682097466514483700,1.307483642578125,-4.9280514449775215,0.29099311686456203,-7.146110940808057
1682097466534613800,1.32761376953125,-5.1882122012048955,-1.327638012048602,-4.877293317642808
1682097466554744800,1.347744873046875,-5.68351325417161,-3.8249861584246156,-2.8808839378595352
1682097466574876000,1.3678759765625,-5.710619287762046,-7.493871070033311,-2.038506061756611
1682097466595005700,1.388005615234375,-4.473467017802596,-11.354693096470832,-1.9880507167607544
1682097466615136500,1.408136474609375,-2.8284207601726052,-12.611770548605918,-0.9244733909875154
1682097466635266800,1.428266845703125,-3.755154497307539,-11.485412064749001,1.5594605625420808
1682097466655397600,1.448397705078125,-5.620256295269727,-9.660520696622132,2.3580676859796044
1682097466675528700,1.46852880859375,-6.608870442256331,-8.707923034912348,0.7719768906652927
1682097466695658800,1.48865869140625,-5.49464371021986,-7.156343581008911,-0.8543266725718974
1682097466715789800,1.508789794921875,-2.416665420898795,-4.661837964582443,-1.7716478537172078
1682097466735920600,1.528920654296875,0.5194774628460407,-1.4419307461827993,-2.8136533991515633
1682097466756051000,1.549051025390625,1.0757049859404564,0.8286170617759228,-4.984764096802473
1682097466776181800,1.569181640625,-0.6997516124099492,1.699548247668147,-6.667714845412969
1682097466796311800,1.589311767578125,-2.62870716612339,4.423821235623955,-7.124686459985375
1682097466816442600,1.609442626953125,-1.4205354914546011,9.2518270830065,-8.130262263166903
1682097466836574000,1.629573974609375,2.117691826674342,10.677642560690641,-5.155718629357218
1682097466856703700,1.649703857421875,3.5915760464787483,9.519075167146324,0.01822714608609676
1682097466876834600,1.66983447265625,1.63229023643136,8.399417057710885,2.6451012515634296
1682097466896964900,1.68996484375,0.2015221047759056,8.641816531798243,5.027023860383033
1682097466917095700,1.710095703125,2.39056958726421,8.281675644427537,7.224594694936275
1682097466937226800,1.730226806640625,3.7714310938477515,6.389457876002788,7.430285609829426
1682097466957356800,1.750356689453125,2.1487363687574863,4.2104800982385875,6.630369741880894
1682097466977488000,1.77048779296875,1.2356675843596459,4.2679625653922555,9.429623444280027
1682097466997617700,1.79061767578125,1.854009910583496,4.244808484297991,11.69297228064537
1682097467017748700,1.810748779296875,2.525298229575157,3.3299642146602273,11.735173592036961
1682097467037879800,1.8308798828125,4.212964316269755,3.389997243079543,10.77382096146345
1682097467058009600,1.851009521484375,5.439276627784967,3.9013404993087053,7.438074948531389
1682097467078140700,1.871140625,3.9470916121363637,4.97180700007379,3.7916789321064948
1682097467098270700,1.891270751953125,1.386486506858468,4.624347899621725,-0.2837386156916618
1682097467118401800,1.91140185546875,-0.8588882813990115,3.3974463900417087,-4.319138625878096
1682097467138532600,1.93153271484375,-2.4043501292049885,0.8765040175884962,-8.027271844291686
1682097467158663000,1.951662841796875,-0.9747837745547294,1.5552777238994835,-10.211123950093985
1682097467178793700,1.971793701171875,-0.17313655276894568,1.8899509925365447,-9.44274771426916
1682097467198923800,1.991923828125,-1.3818413114011288,0.8321259466797113,-9.28860461578369
1682097467219054600,2.0120546875,-3.374432009679079,-1.0335533589094876,-9.283150442031026
1682097467239186000,2.03218603515625,-5.797327849400043,-3.5901954057753085,-8.809620491367578
1682097467259315700,2.052315673828125,-7.729421701139211,-5.126818113565444,-5.247105704200267
1682097467279446800,2.07244677734375,-8.293799797463416,-7.362436062440276,-2.0732529654890297
1682097467299577600,2.09257763671875,-7.8884794596731656,-9.971805490887164,-1.443891232600808
1682097467319707600,2.112707763671875,-5.588405697500705,-11.840820078378915,-1.8329905034303664
1682097467339838700,2.132838623046875,-3.6439872017174957,-11.418291416156292,-0.7117951014250516
1682097467359968800,2.15296875,-4.182049538046122,-13.104140224295854,-2.334136775293946
1682097467380099800,2.173099853515625,-5.71225127287805,-9.652447280281782,-1.8834423412948846
1682097467400229600,2.193229736328125,-4.953882051804661,-7.079575398626923,-1.564820043748617
1682097467420360700,2.213360595703125,-2.80522985419929,-4.08495986764729,-3.118834615844488
1682097467440491800,2.23349169921875,-0.86586630371809,-0.4249824851155281,-5.683509747040271
1682097467460621800,2.253621826171875,-0.5965874444030225,2.392659106889367,-5.8412932478547095
1682097467480752400,2.27375244140625,0.06808043353557586,4.366644181157648,-6.123073715215921
1682097467500883500,2.293883544921875,-0.12155015791654586,7.345804661113023,-8.571040867829323
1682097467521013500,2.314013427734375,-0.13842121321856976,10.74487543748617,-7.509477804487943
1682097467541144300,2.334144287109375,1.5111233787439762,13.314371705228089,-2.450343818616867
1682097467561274600,2.354274658203125,2.8747528877586124,14.494454765009879,4.4861961509943
1682097467581405400,2.374405517578125,2.276481435791403,13.068671436029671,7.915062346172332
1682097467601535500,2.394535400390625,0.8488146311521529,11.288616403973101,6.610535745120048
1682097467621666300,2.414666259765625,3.050886284255981,10.360753370547293,8.335132509326934
1682097467641797600,2.434797607421875,4.380182584905624,8.964157557606697,10.925415544509887
1682097467661927400,2.454927490234375,1.6399487883605062,7.322638889580965,10.30318848580718
1682097467682058200,2.475058349609375,-0.7922397803626954,6.11022592408061,9.610421325457095
1682097467702188500,2.4951884765625,0.8347329873729497,3.8998853320643305,10.19904422072172
1682097467722319400,2.5153193359375,4.715766538646817,2.393433306132257,10.606647701013088
1682097467742450400,2.535450439453125,7.333329210421443,2.3299960222274065,9.502699201884866
1682097467762580500,2.55558056640625,6.191295603048801,2.7442601294517517,5.171074603921174
1682097467782711600,2.575711669921875,1.6921581374168395,3.8431571904093027,-0.4170072684526443
1682097467802841300,2.59584130859375,-2.2123229980051518,3.5328199061274526,-6.140231770765781
1682097467822972400,2.615972412109375,-1.1939233690857887,1.4540601599156855,-11.696764658665657
1682097467843103500,2.636103515625,0.24332712859259917,-0.9633148705571889,-13.20795248094797
1682097467863233500,2.656233642578125,-1.0162614478468894,-0.15568448270857332,-12.530523174983262
1682097467883364400,2.6763642578125,-3.989033395808935,0.1642781235307455,-10.123369678795337
1682097467903494400,2.696494384765625,-5.457767393243312,-0.45828854238986966,-7.645881248143315
1682097467923625500,2.71662548828125,-6.653596303689479,-2.5242969435781237,-6.189066236561536
1682097467943756300,2.73675634765625,-5.9657578319132325,-5.451074617606401,-5.838913074719906
1682097467963886600,2.756886474609375,-5.231182158881426,-8.318795122510194,-3.893527779731154
1682097467984017400,2.777017333984375,-7.471354117798805,-9.90441245509386,-1.6916291451066732
1682097468004147500,2.7971474609375,-8.226706036877632,-11.96768821644783,-1.3588111489474772
1682097468024278500,2.817278564453125,-6.213804371976852,-12.547878798931837,-1.5887047772049903
1682097468044409600,2.83740966796875,-4.255162705051899,-11.739583225172757,0.7121861465692519
1682097468064539400,2.857539306640625,-4.71747743421793,-9.75715210185945,1.777828003656864
1682097468084670500,2.87767041015625,-6.402684437322616,-7.780483779856562,0.6503174271553754
1682097468104800500,2.897800537109375,-7.0791375917315476,-5.613695037057996,-1.2505793222874402
1682097468124931300,2.917931396484375,-4.529608591741323,-3.2831437190353867,-5.0839159604281186
1682097468145061400,2.938061279296875,-1.4484265379428862,0.8787377679899334,-8.22685801256895
1682097468165192400,2.9581923828125,0.31591128502190113,3.05187646433711,-9.589703531599044
1682097468185323500,2.978323486328125,0.7832313481945544,5.5061073535203935,-10.624138934040069
1682097468205453300,2.998453369140625,-0.4385936618387699,9.085615361064672,-10.187864655059576
1682097468225584400,3.01858447265625,-0.320857509252429,12.299850963568687,-8.42828016410172
1682097468245714400,3.03871435546875,0.15422726963758468,13.079637066680192,-3.083303868257999
1682097468265845500,3.058845458984375,0.7840109542649238,13.14791857574582,3.7374335471779108
1682097468285976300,3.078976318359375,1.812946078789234,13.64867263342142,8.96836611521244
1682097468306106600,3.099106689453125,2.9501626412689683,12.740337307286262,11.083992826050519
1682097468326237400,3.119237548828125,2.9883354277968404,11.115194604521989,10.453804579210281
1682097468346367200,3.1393671875,1.0961562378168106,9.316652314138413,8.781488037338852
1682097468366498600,3.15949853515625,-1.4805378324747085,7.704701101380587,7.297960375398397
1682097468386629400,3.17962939453125,-2.0186030914127824,6.668237407982349,7.349532741725445
1682097468406759400,3.199759521484375,-0.25129998890161515,5.500763654404878,10.0327641097188
1682097468426890500,3.219890380859375,2.558251235628128,4.904447282028198,11.869388001215457
1682097468447020500,3.2400205078125,4.77669067068696,5.229828990706801,13.155414484459161
1682097468467150800,3.26015087890625,4.2998669391751285,5.280493010017276,10.555416695469617
1682097468487281000,3.280281005859375,1.1461959877490997,4.786436404153704,3.826148772463202
1682097468507412000,3.300411865234375,-0.3769885983297601,4.1143531353920695,-1.3237620473980902
1682097468527543000,3.32054296875,0.2861737338840961,3.7100218086391683,-7.1149933334887026
1682097468547673000,3.340673095703125,-0.3495078496754169,0.24697686500549315,-12.688707657814025
1682097468567804000,3.360803955078125,-0.916792188835144,-0.7855027271926402,-16.17752241799831
1682097468587934000,3.380933837890625,-1.7903987314164638,-0.6238678116470575,-14.13219381674528
1682097468608064800,3.401064697265625,-1.76362412173748,-0.19981471633613107,-9.926745867455004
1682097468628196000,3.421196044921875,-2.753722369801998,-1.350978555625677,-7.673893875184655
1682097468648326000,3.441325927734375,-4.37457701998353,-3.5499095726162193,-7.003778691625595
1682097468668457000,3.46145703125,-4.654681078565121,-5.893593343934416,-6.137311499404907
1682097468688587000,3.4815869140625,-3.887545198190212,-7.261669749355316,-4.9974377004146575
1682097468708718000,3.501718017578125,-4.834433250081539,-8.550354053631425,-2.2062211739987134
1682097468728848000,3.521847900390625,-6.66698536209464,-10.480949775767325,0.7024491809308528
1682097468748979000,3.54197900390625,-7.511525969189405,-11.003318283879755,1.6300550247251986
1682097468769110000,3.562110107421875,-6.356018547737598,-10.648725093764066,-0.3198579768210649
1682097468789239800,3.58223974609375,-4.562798913681507,-10.036280593407154,-0.9343617477953433
1682097468809371000,3.602370849609375,-3.7695302286624908,-8.327221590071916,0.2067635125607252
1682097468829501000,3.6225009765625,-3.9022166976213453,-6.2228521863073105,0.1986035869807005
1682097468849632000,3.642632080078125,-3.010550766736269,-2.4603724606782196,-3.184806678923964
1682097468869762000,3.662761962890625,-1.743511892557144,1.0530620692387223,-7.850441697701811
1682097468889893000,3.68289306640625,0.7667500959277153,1.747861319938302,-11.109757381904124
1682097468910024000,3.70302392578125,3.001749620643258,3.281087955549359,-10.373697023272515
1682097468930153700,3.72315380859375,1.769491552466154,6.7390452206552025,-9.07463161023557
1682097468950285000,3.74328515625,0.36059564540088174,10.370845725494622,-7.590718748369812
1682097468970414800,3.763414794921875,-0.7226559565268457,11.89308685671091,-2.6621511705636975
1682097468990546000,3.7835458984375,-1.2714531834900378,12.023383800184726,3.2852257860064507
1682097469010676000,3.803676025390625,1.1078757555745542,11.598914525288343,6.937609644669294
1682097469030807000,3.82380712890625,3.2930922815978527,11.1220744271636,7.411452899065614
1682097469050937900,3.843937744140625,3.2837761717200276,10.394455733662843,7.555628730288148
1682097469071068200,3.864068115234375,3.0278479384958743,9.480911732968687,9.382823699182271
1682097469091199000,3.884198974609375,1.5591513504624366,8.590062963685392,11.634190421330928
1682097469111328800,3.904328857421875,0.9852093800444155,7.659946013852953,11.126318056082726
1682097469131459800,3.9244599609375,3.0600375589609143,5.729070890253782,10.842633216404915
1682097469151590000,3.94458984375,6.087082364380359,4.329532009598613,12.384245403045416
1682097469171721000,3.964720947265625,8.159296049949527,4.611696507841349,12.706888626670837
1682097469191851000,3.98485107421875,5.749668272602558,4.539931248313188,10.443581291359662
1682097469211982000,4.004982177734375,0.7126923425257206,5.1865059818089,4.728761629298329
1682097469232113000,4.02511279296875,-2.618667418146133,4.217576778501272,-2.136453810289502
1682097469252243000,4.045242919921875,-1.7164906146407126,2.9484155053406953,-7.654060462945699
1682097469272374000,4.0653740234375,-0.9117465958833694,2.1197668793827296,-9.46083749771118
1682097469292503800,4.08550390625,-2.1513725624799727,0.957428735128045,-12.262588862144947
1682097469312635000,4.105634765625,-2.8150422231614587,0.04047171112000942,-15.756680685949325
1682097469332765000,4.125764892578125,-1.0414262842416762,-0.8116548210591077,-13.466837225890158
1682097469352896000,4.14589599609375,0.7050526414275169,-0.7477168941557407,-8.466372871130705
1682097469373026800,4.16602685546875,-0.4141631310679018,-2.314620173919201,-7.140484917619824
1682097469393157000,4.1861572265625,-3.2750153576374053,-4.452089298731089,-7.768628506889939
1682097469413288000,4.206287841796875,-4.828054947221279,-6.287163622698188,-7.706199815505743
1682097469433418000,4.22641796875,-7.365043614590167,-7.6801891759365795,-6.142896606060862
1682097469453548800,4.246548828125,-9.129998108148575,-9.495650452417134,-2.4331921928077933
1682097469473679600,4.2666796875,-8.474020755535363,-11.116078401619195,-0.3752648067444563
1682097469493810400,4.286810546875,-5.5861026812553405,-11.636002439188957,0.652339872893691
1682097469513941500,4.30694140625,-3.866298996543884,-11.099607743811607,0.3857183962196111
1682097469534071600,4.327071533203125,-3.6277485991001126,-10.366710817646979,-0.6759294227957725
1682097469554202600,4.34720263671875,-2.854949870657921,-9.333361456876993,-1.3929425511300564
1682097469574332400,4.36733251953125,-1.7451695966362952,-7.308452543318271,-2.472581369388103
1682097469594463200,4.387463134765625,-1.2533049478590488,-4.523039150223136,-4.8827340473920104
1682097469614594600,4.407594482421875,-1.7159668830275534,-0.36976211767494677,-8.398733751621842
1682097469634724400,4.427724365234375,-1.9108815523624418,2.368316400532424,-10.603929674226045
1682097469654855400,4.44785546875,-0.9874076938062906,4.434561825346947,-11.380264760100841
1682097469674985500,4.4679853515625,-0.4212964900791645,9.108958827251195,-10.57911321287751
1682097469695116500,4.488116455078125,-0.2407785218220204,13.535647142744063,-7.743531475034356
1682097469715246300,4.508246337890625,-0.9280524185180663,14.66424083830714,-2.2861738316357134
1682097469735377700,4.528377685546875,-0.8391443010091781,14.627066415166855,4.1192239562988275
1682097469755508500,4.548508544921875,0.8168640801399946,13.670087177371977,8.482724286472797
1682097469775638300,4.56863818359375,1.7945879997998475,11.963287935662269,8.948497631660103
1682097469795769300,4.588769287109375,1.5729659408032892,10.843235273951292,10.574655648946761
1682097469815899400,4.6088994140625,0.4815454628041014,9.45101051570177,12.251543736517428
1682097469836030500,4.629030517578125,-0.34332364461515097,8.851388087517023,12.549613659900427
1682097469856160500,4.649160400390625,-0.3087175741255283,8.582033971008658,11.906574114793539
1682097469876291600,4.66929150390625,-0.5779214685082436,5.915872395759821,11.598381441324948
1682097469896421400,4.68942138671875,1.016291842985153,4.1512990104734895,11.097650764524936
1682097469916552400,4.709552490234375,2.8758780923962592,4.420888397042453,10.455738177621363
1682097469936683500,4.72968359375,3.5377123543441296,4.290923169741034,8.630137199920416
1682097469956813300,4.749813232421875,3.3477368949770927,4.120990965971351,2.0426976682275533
1682097469976944400,4.7699443359375,1.953731683051586,3.2601164791911836,-5.031124281439185
1682097469997074400,4.790074462890625,1.013412488156557,2.7099440183520316,-8.872938240545988
1682097470017205500,4.81020556640625,1.0885832452792674,2.3240555262625215,-11.062552563136816
1682097470037335300,4.830335205078125,-0.9902900443095713,0.3160504012316465,-14.827447533214091
1682097470057466600,4.850466552734375,-2.1689783617973326,-0.48010991357564925,-15.057000969731806
1682097470077597400,4.870597412109375,-3.0252865635752677,0.4312999976992607,-10.388740278625487
1682097470097727500,4.8907275390625,-4.523593861496448,0.08343874618709086,-7.252503861603141
1682097470117858300,4.9108583984375,-5.3871898821949955,-2.8195208298802372,-7.8649121216028925
1682097470137988600,4.930988525390625,-4.401017283141613,-5.772214450931549,-8.329305995130538
1682097470158119400,4.951119384765625,-4.214700930804014,-8.141312649491429,-6.888099471569061
1682097470178249500,4.97124951171875,-5.40969163686037,-9.754040107318758,-4.3230829795897
1682097470198380500,4.991380615234375,-7.417379366505146,-11.157405268263815,-2.2473580710291863
1682097470218510300,5.01151025390625,-7.398366038477421,-12.022107204377651,-1.9748153876125811
1682097470238641400,5.031641357421875,-4.494317498129606,-12.252833191806078,-3.0384347989618776
1682097470258771500,5.051771484375,-2.509039168691635,-11.984646365511416,-1.9302093531668185
1682097470278902500,5.071902587890625,-2.6609271817266937,-10.066411527776717,0.23334406097233293
1682097470299033300,5.092033447265625,-5.309903228896856,-6.974592344629764,0.761411072987318
1682097470319163600,5.11216357421875,-7.952076610314846,-3.5984576226860283,-1.2713234196305274
1682097470339294500,5.13229443359375,-6.721980688607692,-0.8645587282508611,-3.714523211711645
1682097470359424300,5.15242431640625,-2.4044728788018226,1.2370292281016706,-6.316248262885212
1682097470379555600,5.1725556640625,-2.379640050840378,3.5989904143884774,-9.18662658882141
1682097470399685400,5.192685302734375,-6.378066713416576,6.740483144503831,-11.495322048866749
1682097470419816400,5.21281640625,-8.809797016978264,8.987153817790746,-10.8607872972548
1682097470439947300,5.232947265625,-6.506897675991058,11.886505140233039,-8.266039683878422
1682097470460077600,5.25307763671875,-4.676975912481546,11.1129722522974,-5.054750071698427
1682097470480208400,5.27320849609375,-3.9704964531213043,9.172359578537941,-1.8098153795480727
1682097470500338400,5.29333837890625,-2.150951706719398,7.6896952554285525,2.5636907963335513
1682097470520469500,5.313469482421875,0.2916045998264104,7.937984956598282,6.819720347347856
1682097470540599300,5.333599365234375,1.1765496980238705,7.377219205552339,9.375206209915875
1682097470560730400,5.35373046875,1.6581635133564472,5.667465790212154,9.454951362282037
1682097470580860400,5.3738603515625,2.3028601780205964,3.4547251513168216,8.723524508669971
1682097470600991500,5.393991455078125,3.5569027925044296,3.514159629321098,12.25914953534603
1682097470621122300,5.414122314453125,4.777032615992427,3.9080969878315925,17.10486639598608
1682097470641252600,5.434252685546875,5.352458760553598,5.164060925766825,18.021057696318625
1682097470661383400,5.454383544921875,3.2431606682151553,4.69080686943531,13.959965610992908
1682097470681513500,5.474513427734375,2.175881565314531,4.652914945675432,6.782982562059163
1682097470701644500,5.49464453125,3.224439016610384,3.4675659281894564,1.658010953143239
1682097470721774300,5.5147744140625,3.8834196426928043,3.063824384023249,-0.32809973546564575
1682097470741905400,5.534905517578125,3.246874135780334,2.9011270999431606,-1.4089204569846392
1682097470762035500,5.555035400390625,2.505814945948124,2.618272281348705,-3.8212931491255757
1682097470782166500,5.57516650390625,2.390313420546055,1.7509455496892332,-5.400978169050813
1682097470802296300,5.59529638671875,2.377346240814775,0.9095961398512125,-6.2929778619349
1682097470822427400,5.615427490234375,2.128947818573564,0.8709323549360036,-6.731555157160758
1682097470842558500,5.635558349609375,0.8757495459593831,0.7098895600646734,-5.764498761987686
1682097470862688500,5.6556884765625,-1.2621427727006376,1.124825867462158,-4.946019647866487
1682097470882819300,5.6758193359375,-3.7611014230132103,0.05925707561075687,-5.312921699935197
1682097470902949400,5.695949462890625,-4.780314998663962,-2.665151521423459,-7.503712665089965
1682097470923080400,5.71608056640625,-3.311519626431167,-4.729795063999295,-6.979712171861529
1682097470943210200,5.736210205078125,-2.2289593677684665,-5.24577708594501,-4.943894910797477
1682097470963341600,5.756341552734375,-3.7862183286130424,-5.561438780120015,-3.0945816335976124
1682097470983471400,5.776471435546875,-5.701648630321025,-6.499941280981898,-2.1913976988762616
1682097471003602400,5.7966025390625,-5.012672678947449,-7.724437482985854,-2.1859055312007665
1682097471023732500,5.816732421875,-3.90082787361145,-8.943604014399646,-1.8356763815134762
1682097471043863600,5.836863525390625,-3.3882138667941093,-10.068408254551887,-2.425292963990569
1682097471063994400,5.856994384765625,-4.536090939497948,-9.476424358421564,-2.6256366726368663
1682097471084124700,5.877124755859375,-6.410112541496753,-8.282820138287544,-1.9518886855334043
1682097471104255500,5.89725537109375,-6.55286564643979,-7.373941791316867,-1.2847042947292326
1682097471124385300,5.91738525390625,-5.674296513015031,-5.817071829789876,-0.8711579803854227
1682097471144516400,5.937516357421875,-7.481660407757759,-0.042274961149692536,-2.0325626431822776
1682097471164646400,5.957646484375,-13.868970750337839,4.059627273470163,-1.7640519917607307
1682097471184777500,5.977777587890625,-12.609264118742942,3.886846110010147,-4.791991115671396
1682097471204907500,5.997907470703125,-5.897322009068727,2.541348616144061,-7.960893538498878
1682097471225038600,6.01803857421875,-4.774107668456435,1.3741302986323833,-9.426830014169216
1682097471245168400,6.03816845703125,-8.474509415835142,2.620824303919077,-8.86724558186233
1682097471265299500,6.058299560546875,-10.737910274648666,3.856905145254731,-5.698055574265122
1682097471285429500,6.078429443359375,-10.316185914546251,3.4256741211384534,-2.927904632231593
1682097471305560300,6.098560302734375,-7.847145578765868,2.7197821062773464,-1.6881857266545295
1682097471325691400,6.11869140625,-6.1859203397512434,1.409827050435543,-0.14804244352281093
1682097471345821400,6.138821533203125,-4.82754992030859,0.6574228752464055,0.8228454926371573
1682097471365952500,6.158952392578125,-4.025182567554712,1.1350900718450545,1.127131221795082
1682097471386082300,6.179082275390625,-3.0927552949532866,2.9957340136155484,1.5586147593677042
1682097471406213600,6.199213623046875,-3.26137261673212,4.187134293964505,2.815703901940584
1682097471426343400,6.219343505859375,-3.5846646596550937,4.736258999316394,3.4256980865359306
1682097471446474500,6.239474609375,-3.68299527002573,5.385561404210328,4.402493785434961
1682097471466604800,6.259604736328125,-3.0610815150558945,5.999013620305061,5.253130955839157
1682097471486735600,6.279735595703125,-1.769803541024774,6.054272566190361,4.077011538991332
1682097471506865400,6.299865478515625,-1.018389253655821,5.781432945653796,3.2972213442265987
1682097471526996700,6.319996826171875,-1.4510009184755384,5.752345967379212,3.9247470938593145
1682097471547127800,6.3401279296875,-1.1440391750413923,6.439245112478733,5.0575586993783705
1682097471567257600,6.360257568359375,0.8558756555795669,5.456850862920284,5.708886180359125
1682097471587388400,6.380388427734375,3.7737656742751597,3.94864702488482,4.284616763073205
1682097471607518700,6.400518798828125,2.62391408662796,4.697494676636159,3.1860388510674236
1682097471627649500,6.4206494140625,-1.817279577948898,5.462083502876758,2.840342084112763
1682097471647779600,6.440779541015625,-2.3794309381343424,5.006004453229904,0.26080080769658087
1682097471667910700,6.46091064453125,0.3838251298189163,3.76160469636023,-1.8179788122594356
1682097471688040700,6.481040771484375,1.311357177724689,2.6201293073922396,-1.662975297552347
1682097471708171500,6.501171630859375,-0.34029680760726333,1.8157611362099646,-1.5318997709214686
1682097471728301600,6.521301513671875,-1.9623850912369787,0.6867039147883653,-2.3643659093409775
1682097471748432600,6.5414326171875,-1.9290626673497258,-0.776614487338066,-4.661357487589121
1682097471768562400,6.5615625,-1.130952825909853,-2.4490052634894846,-6.517052574780583
1682097471788693800,6.58169384765625,-1.3209962359465657,-3.386984617260098,-6.3952943270713085
1682097471808823600,6.601823486328125,-2.7191806332528587,-3.653018649435043,-5.3411248811125756
1682097471828954600,6.62195458984375,-2.0051940131329,-4.8211792162328955,-4.726512973588704
1682097471849085700,6.642085693359375,-0.7166929564692079,-6.83698069422841,-3.368870283898711
1682097471869215700,6.6622158203125,-2.1599664955630895,-8.137513841730355,-1.5275146877050398
1682097471889346600,6.6823466796875,-6.9373431026875965,-7.9276564548075195,-1.1475824736714362
1682097471909476600,6.7024765625,-11.411417438733578,-8.321548220610618,-1.6622154190957545
1682097471929607700,6.722607666015625,-10.06870285358429,-8.975794219386577,-2.8294483496546743
1682097471949737500,6.742737548828125,-5.602382784926891,-9.148440358290076,-2.353188097244501
1682097471969868500,6.76286865234375,-6.455092669951916,-7.666006336805224,-1.7858815462529658
1682097471989998600,6.78299853515625,-11.075684431910513,-4.674322183102369,-4.763931142356991
1682097472010129700,6.803129638671875,-8.695019129675627,-3.392055929175019,-7.227970308849215
1682097472030259700,6.823259765625,-1.7404725248612463,-2.371661327046156,-7.228181321251392
1682097472050390800,6.843390869140625,-0.15100406980738043,0.9299661431849002,-8.493527420037985
1682097472070520600,6.8635205078125,-3.534550090920925,3.8528883108288046,-9.440555757182835
1682097472090651400,6.8836513671875,-5.516586661958694,6.051044836315512,-8.635198574963212
1682097472110781700,6.90378173828125,-3.8955040482401846,9.383412897247075,-6.990766065317392
1682097472130912500,6.92391259765625,-0.22586890278607605,12.657038261830806,-6.525388441449404
1682097472151043600,6.944043701171875,-0.10274272772446275,13.00509766626358,-5.645387813916802
1682097472171173600,6.964173583984375,-1.990391580798477,12.702569009906053,-2.4880548328518866
1682097472191304700,6.9843046875,-1.5855929287947714,12.558794160699843,0.8262146768093108
1682097472211434500,7.0044345703125,0.0768973617196083,12.572152823966741,2.355698034238815
1682097472231565800,7.02456591796875,-1.2265829451501369,11.73271509296894,3.499510341721773
1682097472251695600,7.044695556640625,-2.573119134414196,10.94911206191778,5.937720070430636
1682097472271826400,7.064826416015625,-2.885289187081158,10.548098481410742,9.887872823703288
1682097472291956700,7.084956787109375,-0.4179308130383491,9.680622988930343,12.019737552636862
1682097472312087600,7.105087646484375,1.6424223388671875,7.296383335340023,11.95409223729372
1682097472332217600,7.125217529296875,1.0784348492957652,4.534195919531584,11.041358968460559
1682097472352348700,7.1453486328125,-0.5460743778705597,3.1467069576323032,8.025565624895691
1682097472372478700,7.165478759765625,0.4099989971257746,4.95959224614501,7.498321619701385
1682097472392609500,7.185609619140625,3.117644529277086,4.949461897274851,7.768256166446209
1682097472412739600,7.205739501953125,4.14247740611434,4.99431869161129,5.690155760926008
1682097472432870700,7.22587060546875,1.9127612286292015,5.086234758764505,-0.7189590017050504
1682097472453000400,7.24600048828125,-1.340554338375479,5.056619372701644,-8.232275361442566
1682097472473131500,7.266131591796875,-0.22976167244091628,2.74098943721801,-11.277438007354736
1682097472493261300,7.28626123046875,1.265335577392578,2.178931016013026,-9.683090255826711
1682097472513392400,7.306392333984375,-0.192197738526389,1.993100401365757,-7.658062684324383
1682097472533523200,7.326523193359375,-2.594255445945263,1.693634055188298,-7.081869647043943
1682097472553653500,7.346653564453125,-4.117386219477654,-0.32845278668701644,-6.7860027866631745
1682097472573784300,7.366784423828125,-3.4351848768055437,-3.857750363907218,-6.451853834161162
1682097472593914400,7.386914306640625,-2.7492566225647925,-6.749684103569388,-4.650435696080327
1682097472614045400,7.40704541015625,-4.688743507164716,-8.35080704832077,-2.700869900536537
1682097472634175200,7.42717529296875,-7.02911420841217,-10.620825863969326,-1.5702712948918343
1682097472654306300,7.447306396484375,-4.029635455310345,-12.689424281650782,-2.0539175659000874
1682097472674436400,7.467436279296875,-0.33904611342642454,-14.139998353016376,-2.534315648767352
1682097472694567400,7.4875673828125,-0.26011337342169133,-13.308310213232039,-1.7521604784369467
1682097472714697500,7.507697509765625,-2.8121839111208913,-10.657061544954777,-1.6788684477329252
1682097472734828500,7.52782861328125,-4.325090227758884,-6.841427736765146,-3.3902795671522616
1682097472754958300,7.547958251953125,-4.03641357114315,-2.6962895870089527,-5.3817281096577645
1682097472775089200,7.568089111328125,-1.5770213536739348,-0.05321195022761822,-7.48706606619358
1682097472795219500,7.588219482421875,1.725630198907852,1.0084966590642928,-9.499126604095101
1682097472815350300,7.608350341796875,1.523909356689453,3.187188605624437,-10.480489172518253
1682097472835480600,7.62848046875,0.14808511362075805,7.511018604189157,-10.421687439459562
1682097472855611400,7.648611328125,-1.5091583622813225,11.44910624113679,-7.2097478389382355
1682097472875741400,7.668741455078125,-1.6914070267885923,12.414203318935632,-1.8860200828284024
1682097472895872300,7.688872314453125,-0.1915145055025816,10.572727895754575,3.0240853710919615
1682097472916002300,7.709002197265625,0.30713468884825706,9.494376194697617,5.124854704537987
1682097472936133400,7.72913330078125,-0.004710077387094497,9.70273369845152,5.849842465013265
1682097472956263400,7.749263427734375,1.0493173297524452,8.961620148083567,8.198135191431641
1682097472976394500,7.76939453125,1.3581962319195269,8.57977187129557,10.93758762834072
1682097472996524300,7.789524169921875,0.12009115474727004,7.16820528371632,12.15335107331276
1682097473016655400,7.8096552734375,-0.27763737620711326,5.979741933602094,9.770720023962856
1682097473036786400,7.829786376953125,-0.22798706398382781,5.311821629738807,9.163289552375673
1682097473056916500,7.84991650390625,-0.4663911117594689,5.461885349956154,10.912125854825973
1682097473077047300,7.87004736328125,0.42974151621088386,5.959944761720299,12.350398078501224
1682097473097177300,7.89017724609375,1.7899930732250213,7.028270158803463,12.157269708061218
1682097473117308400,7.910308349609375,3.302763780784607,6.529726178392767,6.674584731182455
1682097473137438200,7.930438232421875,3.0819173823356625,5.864032318407297,-0.8014753723502158
1682097473157568500,7.950568603515625,-0.765863814612478,5.709449074938893,-6.151981829792261
1682097473177699300,7.97069921875,-4.692417811763287,3.7596389492452142,-11.386131021785735
1682097473197830400,7.990830322265625,-2.857185082364082,1.1166156729996204,-16.56392178221941
1682097473217960400,8.01096044921875,1.5646294896125792,-0.7648200046479702,-13.375627261179686
1682097473238091500,8.031091552734376,1.6443582753658295,-0.5148790291398764,-7.885294984418153
1682097473258221300,8.05122119140625,-2.9632547625541683,-0.7769236994177102,-6.200968271279335
1682097473278352400,8.071352294921875,-6.150019005286693,-3.50080213509798,-6.6110787659555665
1682097473298482400,8.091482421875,-6.2053732282400125,-6.563482317522168,-5.625736187985539
1682097473318613200,8.11161328125,-5.0343607791423794,-8.79499458464384,-4.244292351469397
1682097473338743600,8.13174365234375,-5.0271734979867935,-10.736828909152745,-1.5053081165939568
1682097473358874400,8.151874267578124,-3.058930474501848,-11.955635375082492,0.43078152678310866
1682097473379004400,8.17200439453125,-0.60096098331213,-12.198363934993743,0.18043898473680017
1682097473399135200,8.19213525390625,-0.32167759346365926,-12.167625097858904,-1.4543769707798957
1682097473419265300,8.212265380859375,-0.9043652534604072,-10.803502983021735,-2.084377001571655
1682097473439396400,8.232396240234374,-1.3303414257884025,-7.4493667423963545,-1.5124036278128623
1682097473459526400,8.2525263671875,-1.5199123960077763,-3.9197149449110027,-2.011823222014308
1682097473479657000,8.272656982421875,-1.4398410804271697,-1.302898707589507,-4.631510046336055
1682097473499786800,8.292786865234374,-1.0034265161931515,0.5502455260753631,-7.781407908964157
1682097473519917800,8.312917724609376,0.11115038098786026,2.6798373416408894,-8.890752129656075
1682097473540048000,8.3330478515625,-0.11342292902972549,5.894307045161724,-8.525920454120635
1682097473560178700,8.3531787109375,0.6360849036633968,9.070601331806182,-7.967838827592134
1682097473580309000,8.37330908203125,1.4393471594303846,10.600959133982657,-4.753875612288713
1682097473600439800,8.393439697265626,1.4316355621397494,10.809154140651225,0.0879202755153179
1682097473620569600,8.413569580078125,1.0420143132627009,9.94961820899844,2.296509932211041
1682097473640701000,8.433700927734375,-1.1286883881092071,9.19447847136557,3.5511283007562158
1682097473660830700,8.453830810546876,-2.8518858069121835,8.314343403798341,6.087858609449863
1682097473680961800,8.4739619140625,-1.822312457549572,7.056051899698376,8.663860021302103
1682097473701091800,8.494091796875,-0.03156887648450211,5.351071690109372,11.10670617763996
1682097473721223000,8.514222900390624,1.583619436764717,5.336978282827139,11.09963813894987
1682097473741352700,8.534352783203126,0.91734047036767,4.507871683968603,10.294538730883598
1682097473761484000,8.554484130859375,-0.5851005663573742,4.2042499716773625,10.644126075536011
1682097473781613800,8.57461376953125,-0.02423665216658264,4.7309410191640255,10.817858840632438
1682097473801745000,8.594744873046874,1.9331191031336783,5.3157940405011175,10.654482634377478
1682097473821875000,8.614875,3.637404900717735,5.915132391047478,7.824696431070565
1682097473842005800,8.635005859375,2.7857319575250146,5.031597744169831,1.276105977731943
1682097473862135800,8.6551357421875,0.9496423921007663,4.782567453765869,-3.2801562276571987
1682097473882267000,8.675266845703124,0.3304675605755299,3.7954444221198558,-6.840714620059728
1682097473902397000,8.69539697265625,0.8114800490140914,0.5611556271463632,-11.457041710311174
1682097473922527700,8.71552783203125,2.1722423320293425,0.714994774249196,-11.31888996168375
1682097473942657800,8.73565771484375,1.7029495805442332,1.6402882494479416,-7.150869533511996
1682097473962788900,8.755788818359376,-1.1966378887414932,1.7096131300866604,-4.845923196867108
1682097473982918700,8.775918701171875,-3.852251766490936,-0.11164777258336543,-5.9203474953472615
1682097474003049700,8.7960498046875,-4.610082058382034,-2.8693495674103495,-6.666702453500032
1682097474023179800,8.8161796875,-4.0212019734859465,-5.467536507585645,-5.585950705564022
1682097474043310800,8.836310791015626,-4.528688554286957,-6.893157924002408,-3.300834858548641
1682097474063441000,8.85644091796875,-5.548718999278545,-8.513625036171078,-1.1927806287914513
1682097474083572000,8.876572021484375,-5.278434908443689,-9.980148956340551,-0.8121089945673942
1682097474103701800,8.89670166015625,-4.170599923270941,-10.617377184820175,-2.459638885706663
1682097474123832800,8.916832763671875,-3.3880420173585413,-9.841040929901599,-2.8697242459416388
1682097474143963000,8.936962890625,-2.7968565781295296,-8.944701746508478,-1.6779823125481605
1682097474164093700,8.95709375,-1.7873977960348129,-7.275691844967008,-0.6743699183940887
1682097474184224000,8.97722412109375,-2.0386650517106055,-6.294792802402377,-0.9334405412971973
1682097474204354800,8.997354736328125,-2.867051811861992,-5.274515689173341,-2.218607777363062
1682097474224484900,9.01748486328125,-2.243181077605486,-2.7354408631801603,-4.778562309777737
1682097474244615700,9.03761572265625,-2.15521988555789,-0.5558879158765078,-6.410709922868013
1682097474264745700,9.057745849609375,-0.8760463369488716,0.9038540890678762,-9.137543116700648
1682097474284876800,9.077876708984375,-0.09900745018627494,3.224458890354633,-10.739416003036498
1682097474305006800,9.0980068359375,0.3785188401043415,7.069598194491863,-10.32123969080448
1682097474325138000,9.118137939453124,-0.24201076703071592,10.421425573652982,-7.433444366121292
1682097474345267700,9.138267822265625,-1.1954933948814868,10.715269403773545,-1.7863532554179429
1682097474365398800,9.158398681640625,0.1274093688061461,9.904026670646667,1.9147113397836684
1682097474385528800,9.17852880859375,0.700371205613017,9.480451129719615,3.2974276804536578
1682097474405660000,9.198659912109376,0.46770986620783805,8.87045168442726,4.713573412516713
1682097474425790000,9.2187900390625,0.5874234563469887,7.835104427838325,6.910937326321005
1682097474445920800,9.238920654296875,0.5283902526199817,7.488243293279409,8.947393469810486
1682097474466050800,9.25905078125,-0.06940026569617912,6.74145695797205,9.941717811137437
1682097474486182400,9.279182373046876,-0.37933015648722646,5.4508560064196585,9.769434660327434
1682097474506312700,9.299312744140625,0.22859014444351194,3.991766620165109,9.990310284870862
1682097474526443500,9.319443603515625,0.34933600023984906,4.37577178272605,12.1483896515131
1682097474546573300,9.3395732421875,0.8396165946960449,4.796015548881888,13.09793610895872
1682097474566704400,9.359704345703125,2.7213527165949345,5.075617503160238,11.650790842998028
1682097474586834400,9.37983447265625,2.989402764767408,3.8558448225468394,5.572559309071302
1682097474606965500,9.399965576171875,1.5889339097857473,2.602382638299465,-0.8878829052150249
1682097474627095600,9.420095458984376,-0.28942721925470977,3.7047117195323107,-0.9669915132433176
1682097474647226600,9.4402265625,-1.4504256028056144,4.126768380329013,-1.0654939730495214
1682097474667356400,9.4603564453125,-1.7583341986358165,2.3312176729768512,-8.454217153912783
1682097474687487500,9.480487548828124,-1.1622013661324977,-0.29945407121777534,-13.250706750047206
1682097474707617500,9.500617431640626,0.4325496689667925,-0.8429892859995365,-9.594920973986387
1682097474727748400,9.520748291015625,0.06287585062980651,-0.04294131610393524,-6.095439273837209
1682097474747878700,9.540878662109375,-1.5741595345020294,-1.1586866360098123,-5.5461833433210845
1682097474768009500,9.561009521484374,-2.408071195554733,-2.5827508861124513,-5.389719692933559
1682097474788139500,9.581139404296875,-2.9114181923329827,-3.972449340754747,-4.6904888895273205
1682097474808270300,9.601270263671875,-3.8302924481391902,-4.755469018959999,-3.3039076901227236
1682097474828400400,9.621400390625,-4.8656712689101695,-6.442160707664489,-2.0162106433182956
1682097474848531500,9.641531494140626,-5.272209750318527,-7.822835313373804,-1.3707511775881052
1682097474868661500,9.66166162109375,-4.501904592257738,-9.08759689027071,-0.7240794134587049
1682097474888792600,9.68179248046875,-2.9834546700179576,-9.624391983142495,-0.11560849290788174
1682097474908922400,9.70192236328125,-1.586166783159971,-9.442453699758648,1.2747463798165322
1682097474929053400,9.722053466796876,-1.3169231412887572,-8.25777980505526,1.0664636948645114
1682097474949183500,9.74218359375,-2.763561626771092,-7.3293795960128305,-2.1282190659075972
1682097474969314600,9.762314453125,-2.6196558446615934,-5.905532203531265,-5.891212001755833
1682097474989444600,9.782444580078124,-0.7387164260983466,-2.9200515806436536,-7.207834114271402
1682097475009575700,9.80257568359375,0.3890472483813762,-0.7101444116085768,-7.669172107359766
1682097475029705500,9.82270556640625,-0.1820242446342483,1.829475773307681,-9.079456838434934
1682097475049836300,9.842836181640624,-0.4297118517249822,4.684648346805572,-10.358574272942542
1682097475069966600,9.862966552734376,0.38239772736430166,7.773328647404909,-8.96627469589114
1682097475090097400,9.883097412109375,1.3084931665956974,9.730509009605646,-4.922962597405911
1682097475110227700,9.903227783203125,1.4671183789312838,9.949261650645733,-0.6385059933304786
1682097475130358500,9.923358642578124,0.2883113669672981,9.324529331123829,1.346536189264059
1682097475150488300,9.94348828125,-1.2786065623760223,8.916938125792145,2.003677324959636
1682097475170619400,9.963619384765625,-1.2340572265535592,7.459552620846033,2.3551281253963707
1682097475190749400,9.98374951171875,0.13762690276941283,6.093986152419448,4.4585967809289695
1682097475210880500,10.003880615234374,1.037027172499895,6.197299811899661,8.377485796409845
1682097475231010600,10.024010498046875,0.09886893676472827,6.428394048118591,11.501160253500938
1682097475251141600,10.0441416015625,0.16830491309510542,5.908747073924541,13.76943017965555
1682097475271271400,10.064271484375,2.8429391148686407,4.752463699664175,13.345368901038169
1682097475291402500,10.084402587890626,4.7053638025760645,4.2445162233531475,13.7492735268116
1682097475311532500,10.104532470703125,5.052967279934883,5.082842193716764,13.41008248848915
1682097475331663600,10.12466357421875,3.5896985621690747,5.668948137724399,10.191090046846867
1682097475351793400,10.14479345703125,1.2413900536596774,5.038831202554703,4.117879555952549
1682097475371924500,10.164924560546876,-0.14030162013769149,4.064732779915631,-1.614929351785779
1682097475392054500,10.185054443359375,-0.33339955890681594,5.432755701583623,-3.162738639500737
1682097475412185300,10.205185302734375,-0.11580891085080802,4.882015669989586,-6.169959969553351
1682097475432315600,10.225315673828124,-0.8453881638348102,2.779249025246501,-12.956951767253875
1682097475452446500,10.245446533203125,-0.2577226423602551,1.364374628293514,-12.8009159868896
1682097475472576300,10.265576171875,-0.4599252036809921,1.1756827789962292,-7.42900784497857
1682097475492707600,10.28570751953125,-2.202070484060049,-0.7703501662462949,-7.407475812128186
1682097475512837400,10.30583740234375,-4.015632648921013,-3.2338965807855127,-8.326800734311341
1682097475532968400,10.325968505859375,-4.774668224948645,-5.492838706624507,-7.613960507747531
1682097475553098500,10.346098388671875,-4.66044563344121,-7.030355148383975,-5.147670347458124
1682097475573229600,10.3662294921875,-4.836610009598732,-8.94111979636848,-2.378930441266298
1682097475593359400,10.386359375,-5.1489995502352714,-10.404164642250537,-1.160925354847312
1682097475613489400,10.406489501953125,-4.8438206716299055,-11.040540637814997,-2.0969763709038496
1682097475633620500,10.426620361328125,-4.111735061848163,-11.46632041078806,-1.727894636708498
1682097475653750500,10.44675048828125,-2.055793881165981,-11.002109492611885,-0.09777940622866153
1682097475673881600,10.466881591796875,-1.2260229731798171,-9.565843932583928,0.6393605643332004
1682097475694011400,10.487011474609375,-1.6594646590828894,-7.419911515331268,-0.07454173850417137
1682097475714142500,10.507142578125,-2.513332481971383,-4.24710273271501,-3.5069787779062986
1682097475734272500,10.5272724609375,-2.920640778708458,-0.9290268165081739,-7.238080199453234
1682097475754403300,10.5474033203125,-1.425146200120449,1.2126049809411168,-8.037687439844012
1682097475774533600,10.56753369140625,-1.6081196717709303,3.3621061965912578,-7.470732186508179
1682097475794664400,10.58766455078125,-1.794523702391982,7.112821250146627,-8.666472249627112
1682097475814794500,10.60779443359375,-0.018465119560435412,9.492034600007534,-8.927995526379346
1682097475834925300,10.62792529296875,1.5702496675819158,10.770381634664535,-6.044690498852729
1682097475855055400,10.648055419921874,0.35293552256915717,11.438892305636406,-1.408232474720478
1682097475875186400,10.6681865234375,-1.4869967993557451,10.89612749070525,2.8217753308087588
1682097475895316500,10.68831640625,-2.146713338497281,9.577629062923789,5.402427198815346
1682097475915447600,10.708447509765625,-0.6521966650307178,8.849221264871954,6.658666446560621
1682097475935577300,10.728577392578124,1.2406681691259145,7.770477349627018,7.865284462046623
1682097475955708400,10.74870849609375,1.4639479322016238,7.111213230428099,10.454882437574863
1682097475975838500,10.76883837890625,0.3435843413779512,5.392193974092603,12.446606874412298
1682097475995969500,10.788969482421875,1.8629168551385402,5.655805747556686,13.389537713110446
1682097476016099300,10.809099365234376,3.1966566911935805,5.854102460545301,14.791550874924658
1682097476036230700,10.829230712890626,2.1604902271762487,5.688129808056354,14.254598545664548
1682097476056360400,10.8493603515625,0.555574027621746,6.089506961178779,11.971335633039473
1682097476076491300,10.8694912109375,-0.07264554949402809,5.177765625992417,5.646912247005105
1682097476096621600,10.88962158203125,0.18691840988397598,3.396712815070152,-1.8816291543930768
1682097476116752400,10.90975244140625,2.258155505505949,3.90991981934458,-2.8380922593593594
1682097476136882400,10.92988232421875,2.8647675003170967,4.3826068894431,-4.5403386600703
1682097476157013500,10.950013427734374,1.3585060285210608,1.7652315569341182,-11.552074448180198
1682097476177143300,10.970143310546876,0.38302082769870754,-0.1179974338710308,-17.40789072690606
1682097476197273600,10.990273681640625,0.8131259895902126,0.17882102814614773,-10.925088212251662
1682097476217404400,11.010404296875,-0.18372107514739036,0.7255950787186622,-5.085232888245582
1682097476237534500,11.030534423828126,-2.73447172588706,-0.6576894172281026,-4.926930331993103
1682097476257665300,11.050665283203125,-4.995391873800754,-3.069915394374728,-7.857143825688958
1682097476277795600,11.070795654296875,-5.516850865852833,-5.323177721011638,-7.5782158251494165
1682097476297926400,11.090926513671874,-3.513848663675785,-7.286325467184185,-5.4588353147357696
