time,seconds_elapsed,z,y,x
1682095575762334200,0.028334228515625,-0.47193888207972046,0.11270166555047034,-0.7770628156274557
1682095575782462200,0.048462158203125,-1.607853714311123,1.4290245028585196,0.2930418660879135
1682095575802590200,0.068590087890625,-1.518573840880394,0.07099018350243567,0.1500479381263256
1682095575822718200,0.08871826171875,-0.4481394888192415,-1.2426093663215636,-0.6633014118909836
1682095575842846200,0.10884619140625,0.5837620112299918,-1.6457874313861132,-1.0682254438400267
1682095575862974200,0.12897412109375,0.6489426316708325,-0.6853028158187866,-1.1367951221972703
1682095575883102200,0.149102294921875,-0.25065000056028364,0.20564590670764446,-0.42389936605393885
1682095575903230200,0.169230224609375,-0.9329507119536399,-0.22792612757682798,-0.3047708823263645
1682095575923358000,0.18935791015625,-0.20004151082932947,0.16369184807538986,-1.1254828700661659
1682095575943486000,0.20948583984375,0.6796563343644142,0.6007891338765621,-0.6806424227923155
1682095575963614000,0.229614013671875,0.2684241421818733,1.1116484059810638,-0.2893476877450943
1682095575983742000,0.249741943359375,-0.7353221074849366,0.6011871932834386,-0.02083352919220924
1682095576003870000,0.269869873046875,-0.6837175924539566,0.23424890085756778,0.22512509868144986
1682095576023998000,0.289998046875,0.12774608994722367,0.004927519530057906,0.39769583426117894
1682095576044127000,0.310126953125,0.6048726037979125,-0.03755845402181148,0.7023539038628339
1682095576064255000,0.3302548828125,1.146799506600201,0.3481722171574831,0.09751344876885414
1682095576084383000,0.350383056640625,0.7862716657385229,-0.5447060121268034,0.7498696882754564
1682095576104511000,0.370510986328125,0.5449418667092919,-0.6047270578473806,0.6646142480552196
1682095576124639000,0.390638916015625,0.4866492522165179,-0.44428515147864817,0.1817366233319044
1682095576144767000,0.41076708984375,0.034578561428189276,-0.2915168484777212,-0.8285404894083738
1682095576164895000,0.43089501953125,-0.7559329338371753,-0.04411269797086716,-0.42924481873512266
1682095576185022700,0.451022705078125,-0.8100365722075105,-0.09502104743123053,0.6370008494645357
1682095576205150700,0.471150634765625,-0.03269406285583973,0.22891280052661894,0.7535299643486738
1682095576225279000,0.491279052734375,0.5152569225415587,0.4262847998857498,0.5839607486724853
1682095576245407000,0.511406982421875,-0.3597711772754788,0.5210474886417389,-0.14421733227670192
1682095576265535000,0.531534912109375,-0.5957993627652526,0.4408312116324901,0.27186872967779635
1682095576285663000,0.5516630859375,-0.22078940756469964,0.31921266465485093,0.27398528344035145
1682095576305791000,0.571791015625,0.29746903488039966,0.0027706337571144104,0.17948796762228011
1682095576325919700,0.591919677734375,0.4194374182090163,-0.14378127894699572,-0.2818582087725401
1682095576346048000,0.612048095703125,0.4299836544036865,-0.3246645003199577,-0.507141712886095
1682095576366176000,0.632176025390625,0.6094263215795159,-0.4589823698729276,-0.30192367620170113
1682095576386304000,0.652303955078125,1.0526143254712224,-0.4734446104675531,0.03746843765079975
1682095576406432000,0.672431884765625,1.3461568345576524,-0.5590659613907337,0.13269114513397215
1682095576426560000,0.69256005859375,0.8330223109975456,-0.516052749094367,-0.15359773956239223
1682095576446688000,0.71268798828125,0.10105506689846515,-0.6454951215654611,-0.19829612846672534
1682095576466816000,0.73281591796875,-0.30439181988090275,-0.7319201900869607,-0.47890112230777737
1682095576486944000,0.752944091796875,-0.30110563781708477,-0.7392085935294628,-0.45387949377596376
1682095576507072000,0.773072021484375,-0.18429624468684194,-0.794375184956193,-0.14202479066848753
1682095576527200000,0.793199951171875,0.207853061363101,-1.182892856505513,-0.1501426306724548
1682095576547328000,0.813327880859375,0.3357558031767607,-1.607957759207487,-0.3675859426796436
1682095576567456000,0.8334560546875,0.21418431021124124,-1.6731407177358866,-0.7293260819405317
1682095576587584000,0.853583984375,-0.15305588777065277,-1.457283798137307,-0.7612205188512802
1682095576607712000,0.8737119140625,-0.24875556511580943,-1.2271814955651759,-0.38034079483449457
1682095576627841000,0.893841064453125,0.03629325639158487,-1.0688947214037179,-0.3001730331420898
1682095576647969000,0.913968994140625,0.19133768763095138,-0.961108300423622,-0.3339940542012453
1682095576668097000,0.934096923828125,-0.33716274736523627,-0.4715852463364601,-0.6767945151925087
1682095576688225000,0.95422509765625,-1.3126438565343617,-0.6935784767329692,-0.6062070672720671
1682095576708353000,0.97435302734375,-1.042428447021544,-0.7720324202448129,-0.6368886212617159
1682095576728481000,0.99448095703125,-0.31494974651336666,-0.9012877457112073,-0.40028818884193895
1682095576748608800,1.01460888671875,-0.0653662061408162,-0.46938744403123855,-0.3540758882433176
1682095576768736800,1.03473681640625,-0.32073914356976746,-0.5409960516929626,-0.9181067785650491
1682095576788864800,1.05486474609375,-0.08010083393603563,-0.6334142231494188,-1.2233686592787503
1682095576808992800,1.07499267578125,0.5567430714011192,-0.22038579519987106,-0.8194260395824908
1682095576829120800,1.095120849609375,1.0651897294059396,0.23420097006261348,-0.8992413345754146
1682095576849248800,1.115248779296875,0.4425982213050127,0.9852169057637452,-1.4438029697954653
1682095576869377000,1.135376953125,-0.9709148241668939,1.1331430294305085,-1.392141171619296
1682095576889505000,1.155505126953125,-1.410556533753872,0.9936310983657837,-1.084049620437622
1682095576909633500,1.175633544921875,-1.2131667064771054,0.3876543327182531,-0.6054390055090189
1682095576929761500,1.195761474609375,-0.9285150675937532,-0.2990209404975176,-0.36230069575309753
1682095576949889500,1.2158896484375,-0.7916790777400136,-0.5656541076093912,-0.09625731122791767
1682095576970017800,1.236017822265625,-0.5956491406396031,-0.5383616115361451,0.2847533456921577
1682095576990145800,1.256145751953125,0.1304649935171008,-0.2898766800552606,0.658415977936983
1682095577010273500,1.2762734375,0.6376853245973587,-0.06943477075397968,0.6356903513878583
1682095577030401500,1.296401611328125,0.5754860580548644,0.3008160072207451,0.6318997269332408
1682095577050529500,1.316529541015625,-0.139748662430048,0.9522107082188129,0.18687924691736696
1682095577070657500,1.336657470703125,-1.0456909559488297,1.1567927850872277,0.30055180332660675
1682095577090785500,1.35678564453125,-0.8691615458711981,1.5146230574280022,0.6519809764534235
1682095577110913500,1.37691357421875,-0.36827538624852896,1.3350468270003795,0.7016033777564764
1682095577131041500,1.39704150390625,-0.20651392171382904,0.8314169216275215,0.9423556691586971
1682095577151169500,1.41716943359375,-0.4355380736604333,0.4978706111937761,0.7886573918312788
1682095577171297500,1.437297607421875,-1.1385904811814427,0.22050094601213932,0.49633565671145913
1682095577191425500,1.457425537109375,-0.9987138084575533,0.0765057320535183,0.5489338589549064
1682095577211553500,1.477553466796875,-0.02608955002427101,0.21859891178309915,0.8314683595538139
1682095577231682600,1.4976826171875,0.5774681717827915,0.14332535187304019,1.1511486417204142
1682095577251810600,1.517810546875,0.7172074818626045,0.28915888717472554,0.9293371976315975
1682095577271938600,1.5379384765625,-0.005980243453383445,0.06368950510025025,0.9314841465324163
1682095577292066600,1.558066650390625,-0.013531389485299587,0.3284504485994577,1.2289993586421013
1682095577312194600,1.578194580078125,0.4022083432495594,0.5700216551691294,1.3067337557077408
1682095577332322600,1.598322509765625,0.5801201475962996,0.8072206380039453,1.2879244258195162
1682095577352450600,1.618450439453125,0.22817045772671699,0.8225269282072782,0.7308966922581195
1682095577372578600,1.63857861328125,-0.20902532001286744,0.3135240976244211,0.903979469013214
1682095577392706600,1.65870654296875,0.11824059497714041,0.31406478037238117,0.8616934019476175
1682095577412834600,1.67883447265625,0.12247048763185739,0.4434767577052116,0.600134469360113
1682095577432962600,1.698962646484375,0.09033698126822709,0.19330957222580908,0.6242874983638524
1682095577453090600,1.719090576171875,0.2717117855504155,0.05422726475000381,0.35751112338900565
1682095577473218600,1.739218505859375,0.21546938158571718,-0.2704185308694839,-0.10218202510178089
1682095577493346600,1.7593466796875,0.37782939653545616,-0.3086164518386125,-0.22868425246775148
1682095577513474600,1.779474609375,0.6186570912614464,-0.2946843725979328,-0.7669722142457962
1682095577533602600,1.7996025390625,1.0108040592238305,-0.3151204269051552,-0.44376609604060646
1682095577553731600,1.819731689453125,1.4700857043042779,-0.10682429794967174,0.2838005750119686
1682095577573859300,1.839859375,1.4665671747893094,0.14378069442510605,0.28973230314850806
1682095577593987600,1.859987548828125,0.8743804495632648,0.2694002937376499,0.2377759059399366
1682095577614115600,1.880115478515625,0.11596563578248023,0.3735854753553867,0.29341420653164385
1682095577634243600,1.90024365234375,-0.43768063864707946,0.29090602310299873,0.4068704898416996
1682095577654371600,1.92037158203125,-0.08805120841860771,0.1506488266289234,0.3588070084184408
1682095577674499600,1.94049951171875,0.4595078550517559,0.21547522680461406,-0.2036602858483791
1682095577694627600,1.960627685546875,0.2583139593169093,0.29289632013738154,-0.6982154888838529
1682095577714755600,1.980755615234375,-0.13827888213843106,0.747421710601449,-1.4341285479992627
1682095577734883600,2.000883544921875,-0.22594722871929407,1.173206159749627,-1.6085609857976435
1682095577755011600,2.021011474609375,-0.173844701038301,1.1458306615680456,-0.7807330285727977
1682095577775139600,2.0411396484375,-0.01952916859537363,0.7945780140519142,-0.3402858478218317
1682095577795267600,2.061267578125,-0.11210457644015549,0.045889059993624685,-0.0995411552041769
1682095577815395600,2.0813955078125,-0.3885333075098693,-0.27777707693874837,-0.06357493880987167
1682095577835523600,2.101523681640625,-0.27287060019671916,-0.2262397819250822,0.48039866738915443
1682095577855651600,2.121651611328125,0.06976356431692839,-0.0029600188493728637,0.5618477010637521
1682095577875780600,2.141780517578125,0.21464082180708646,-0.3733803081721067,0.3756955993771553
1682095577895908600,2.16190869140625,0.28408991334736344,-0.6418336764484643,-0.05557108057439327
1682095577916036900,2.182036865234375,0.08563713301420212,-0.8561053726822138,-0.11711363677382468
1682095577936164900,2.202164794921875,-0.066729895709455,-0.9990642293304204,-0.007812135055661201
1682095577956292900,2.22229296875,0.15081439245417713,-0.9295423648148775,-0.03264262492954731
1682095577976420900,2.2424208984375,0.3066179714977741,-0.7055974158287048,-0.25884149032235143
1682095577996548900,2.262548828125,-0.05263298129588365,-0.3983639427810907,-0.40514088957011696
1682095578016676600,2.282676513671875,-0.3595087269470095,0.02240998472869396,-0.20617372997403144
1682095578036804600,2.3028046875,-0.4504617942869663,0.4011228861004114,0.026910218757390976
1682095578056932600,2.3229326171875,-0.6029768531791866,0.29636370398700235,0.21982290062010287
1682095578077060600,2.343060546875,-0.8151485083937644,0.41776363977789877,-0.07223872225880622
1682095578097188600,2.363188720703125,-1.5878554668992757,0.19313655374646185,-0.36581133422255513
1682095578117316600,2.383316650390625,-1.4612005331896245,-0.06034779345691204,-0.39759237388670443
1682095578137444600,2.403444580078125,-0.5045423440426587,-0.27273616016209123,-0.18750760794878005
1682095578157572900,2.42357275390625,0.41082083490267396,-0.5369119972497225,0.14127484908401966
1682095578177700900,2.443700927734375,0.9354223627641797,-0.36904490931630135,0.28015491198599335
1682095578197829600,2.46382958984375,0.49295682792812584,-0.19240999303758144,0.3177934455066919
1682095578217957600,2.48395751953125,0.06445873590707779,-0.18511808246374128,0.6118927116930485
1682095578238085600,2.504085693359375,0.035636692178994414,-0.3956353946000337,0.44944297263324257
1682095578258213600,2.524213623046875,0.6135233816348016,-0.42485213673412797,0.5968196457237005
1682095578278342000,2.544341796875,1.0428437498241663,-0.47047933092117306,0.7555079864233731
1682095578298470000,2.564469970703125,0.558838728506118,-0.4516805224269628,0.6592465835422278
1682095578318598000,2.584597900390625,-0.12382131771892309,-0.37648996462523937,0.5186562095910311
1682095578338726000,2.604725830078125,-0.41209845362305636,-0.4713064293950796,0.2088981865018606
1682095578358854000,2.62485400390625,-0.13929156631231307,-0.668684858494997,0.0981295348405838
1682095578378982000,2.64498193359375,0.36001638420820237,-0.7008481754750013,-0.24337387207746505
1682095578399110000,2.66510986328125,0.19011340653300285,-0.49591947712600226,-0.573953733921051
1682095578419238000,2.68523779296875,0.0500841735959053,-0.39455928980112076,-0.7305623457372188
1682095578439366000,2.705365966796875,0.28203619568794963,-0.4646306048929691,-0.705483434060216
1682095578459494000,2.725493896484375,0.4959599552668631,-0.5978922433912753,-0.5212836354851722
1682095578479622000,2.745621826171875,0.5269119967609643,-0.752803988161683,-0.7823790422141551
1682095578499749600,2.76574951171875,0.12250249020531773,-0.7747516160756349,-0.820289378413558
1682095578519879000,2.78587890625,0.040457098072767254,-0.4467576790720224,-0.7380453949689865
1682095578540007000,2.8060068359375,0.09337795639932155,-0.3701356271624565,-0.5334083730429411
1682095578560135000,2.826135009765625,0.2438940965592861,-0.5231237103939056,-0.40677813538312907
1682095578580262700,2.8462626953125,0.3267208483278751,-0.36500060236155984,-0.5083014043152332
1682095578600390700,2.866390625,-0.0009539397239685058,-0.07163900279998779,-0.42855683647096154
1682095578620518700,2.8865185546875,-0.10995821206122636,0.7387403914958238,-0.791342685392499
1682095578640646700,2.906646728515625,-0.5665501796662807,0.9029273296117782,-0.7942541889250277
1682095578660774700,2.926774658203125,-0.5003950151048601,0.7738239798367023,-0.5933090072542428
1682095578680902700,2.946902587890625,-0.055022068389505144,0.42966216736435886,-0.12208382640182971
1682095578701030700,2.96703076171875,-0.02166238123178482,0.00779518392086029,-0.007328735452890396
1682095578721158700,2.98715869140625,-0.5169669413298368,-0.26967794163525105,0.15499825401008127
1682095578741286700,3.00728662109375,-0.38092473220229145,-0.1537123058527708,0.08858195429444313
1682095578761414700,3.02741455078125,0.11272709225267172,-0.2518324883431196,0.3195838360548019
1682095578781542700,3.047542724609375,0.5023544786095618,-0.5036462719857693,0.7194651976615191
1682095578801671000,3.0676708984375,0.1797498334288597,-0.6043102937400341,0.40449323931634423
1682095578821799700,3.087799560546875,-0.4771639232516289,-0.6087129126131534,0.4783651157349348
1682095578841927700,3.107927734375,-0.614929595170915,-0.30759003140032287,0.431299413177371
1682095578862055700,3.1280556640625,-0.049591713903844356,-0.1405453657656908,0.59128130081892
1682095578882183700,3.14818359375,0.5895911557748913,0.19138006546795366,0.529452913415432
1682095578902311700,3.168311767578125,0.21271014600545166,0.4252577949255705,0.3655687576383352
1682095578922440000,3.18843994140625,-0.46197599873095746,0.6096534083336591,0.059033203727006905
1682095578942568000,3.20856787109375,-0.6722495652392506,0.5596978295534849,0.15717442900538445
1682095578962696000,3.228696044921875,-0.5032467512741685,0.3258253607928753,0.29088322674930095
1682095578982824000,3.248823974609375,-0.43719870034903285,-0.022662498185038564,0.3091846071153879
1682095579002952000,3.268951904296875,-0.48811318728923797,-0.05714870515465736,-0.20517887371778487
1682095579023080000,3.289079833984375,-0.59427492967695,-0.07440203777253628,-0.2891290765583515
1682095579043208000,3.3092080078125,-0.0508206711769104,0.20233342115879058,-0.10533668974041938
1682095579063336000,3.3293359375,0.39090982738286256,0.30350539243519303,0.3925350904971361
1682095579083464000,3.3494638671875,0.4541948433354497,0.36801089009344573,0.6734019501447677
1682095579103592000,3.369592041015625,0.2578679691150784,0.4114274224936962,0.5672112739235162
1682095579123720000,3.389719970703125,-0.3943196358263492,0.3764221600860357,-0.09873393047451973
1682095579143849000,3.409848876953125,-0.3658820613712072,0.22697686402797698,0.3763397424995899
1682095579163977000,3.42997705078125,0.3794248490333557,0.08823825542330742,0.6896253551930188
1682095579184105000,3.45010498046875,0.7985857883885502,0.04330138158798218,0.661448477500677
1682095579204233000,3.47023291015625,0.3553074758648872,0.11403028380572795,0.05537234313189983
1682095579224361000,3.49036083984375,-0.6155211313232779,0.32356852177679535,-0.37895313986837864
1682095579244489000,3.510489013671875,-0.9301378464899956,0.49246495275795454,-0.021689269238710403
1682095579264617000,3.530616943359375,-0.2419457389704883,0.49483518902063367,0.7537485755354165
1682095579284745000,3.550744873046875,0.7042477547854185,0.004037292692065239,0.8590694831848144
1682095579304873000,3.570873046875,1.2227983120448886,0.19000936163663862,0.5646154122114181
1682095579325001000,3.5910009765625,0.15711451551169156,0.1634761594980955,0.09495850358903407
1682095579345129000,3.61112890625,-0.4265057491600513,0.24586159723997114,0.17423662296533585
1682095579365256700,3.631256591796875,0.11955518470704554,0.23046295257806776,0.2714449513077736
1682095579385384700,3.651384765625,0.9547460719153285,-0.13445289410948752,0.6456628793478012
1682095579405514000,3.671513916015625,1.442202694991976,0.1694452970355749,0.4246019613653421
1682095579425642000,3.69164208984375,0.5619894476220011,0.34269115539789197,0.24162264449596405
1682095579445769700,3.711769775390625,0.08147767524719238,0.4990092598348856,0.355869201400876
1682095579465897700,3.731897705078125,0.234192494495213,0.3364607365757227,0.33799978271126746
1682095579486025700,3.752025634765625,0.6864063931465149,0.4253343672931194,0.5799859998226166
1682095579506153700,3.77215380859375,0.24605682755112646,0.71537880513072,0.21998598222732543
1682095579526281700,3.79228173828125,-0.4378837600037455,0.757214790341258,0.26029811887145043
1682095579546409700,3.81240966796875,-0.08877513877898455,1.426496445685625,-0.09872224003672599
1682095579566538000,3.8325380859375,0.41517318489328026,1.6645424007385967,0.2393979541838169
1682095579586666000,3.852666015625,0.27826047654151914,1.483569162994623,0.5631061766922474
1682095579606794000,3.8727939453125,-0.19911372845992445,0.9676672205477952,0.35021570568382737
1682095579626922000,3.892921875,-0.47333282065615057,0.40970249839723105,0.39299920087754725
1682095579647050000,3.913050048828125,-0.42828620283603663,0.12081833651065825,0.4073170645654201
1682095579667178000,3.933177978515625,-0.15723273506388066,-0.0420674558788538,0.3007505407691002
1682095579687306000,3.953305908203125,0.17154840679466724,-0.32403204763531684,0.23033201967477798
1682095579707435000,3.97343505859375,0.38631928472220894,-0.2110159093081951,-0.13613982428312302
1682095579727563000,3.99356298828125,0.04188815378919244,-0.008492518535256385,-0.01750876868367195
1682095579747691000,4.01369091796875,-0.4208801643632352,-0.19693594602942466,-0.18021803546249865
1682095579767819000,4.033819091796875,-0.4459988235287368,-0.6343757616579532,-0.21606384034752846
1682095579787947000,4.053947021484375,-0.145106317005679,-0.8873726176053285,-0.3007984715640545
1682095579808075000,4.074074951171875,-0.2411990122564137,-0.8688537950962781,-0.20141046109497546
1682095579828203000,4.094203125,-0.33827385041229424,-0.5770803415089846,0.10546703812181948
1682095579848331000,4.1143310546875,-0.33238829950504,-0.18587679187655448,0.18487959753274916
1682095579868459000,4.134458984375,-0.17739026469066738,-0.11926175471842289,0.14287527001798153
1682095579888587000,4.1545869140625,0.1555378407794982,-0.008653262054920195,-0.1752180352181196
1682095579908715000,4.174715087890625,0.1064588256381452,0.23204174620211124,-0.28995851311981674
1682095579928842500,4.194842529296875,-0.14479732412174343,0.18851707725226877,-0.19002748181521892
1682095579948970500,4.214970458984375,-0.12052534491345286,-0.019285130706429482,-0.24356793334484098
1682095579969098500,4.235098388671875,0.19845731037780642,-0.30064240421950816,-0.3553735268384218
1682095579989226500,4.2552265625,0.3694422380708158,-0.6248655905127525,-0.7300029582887888
1682095580009355500,4.27535546875,0.4170219545651227,-0.7824322337061166,-0.4878747023582458
1682095580029483500,4.2954833984375,0.4587188966311514,-0.6546417200952768,-0.156682846096158
1682095580049611500,4.315611572265625,0.438668553705886,-0.7992512665599584,-0.14069500336945057
1682095580069739500,4.335739501953125,0.6179297999002039,-0.91394615175426,-0.52992286901474
1682095580089867500,4.355867431640625,0.7332581606924533,-0.8639777134925126,-0.5035761293590069
1682095580109995500,4.37599560546875,0.6247838305134326,-0.8209709309369325,-0.12658464495241642
1682095580130123500,4.39612353515625,0.4040057480603456,-0.6312099911034107,-0.07032149046063423
1682095580150251500,4.41625146484375,0.10652326917648315,-0.47282501726448534,-0.1140104100614786
1682095580170379500,4.436379638671875,-0.1762520544409752,-0.6778221046745777,-0.09025076428949833
1682095580190507500,4.456507568359375,-0.07042904248833656,-0.6508709693849086,-0.13324994806051255
1682095580210635500,4.476635498046875,0.0025508535265922547,-0.5998422084152698,0.09688099608421324
1682095580230763500,4.496763427734375,0.007126490879058837,-0.4880401220530271,0.15637538758218286
1682095580250891500,4.5168916015625,-0.008495952601358294,-0.4662964922785759,-0.41086218982636924
1682095580271020300,4.537020263671875,-0.07514430750720202,-0.5593015237122774,-0.5309720858067274
1682095580291148500,4.5571484375,-0.28266894063353537,-0.5667629456341267,-0.29818916584849353
1682095580311276500,4.577276611328125,-0.2997398293565959,-0.7309142279148101,-0.769659845894575
1682095580331404500,4.597404541015625,-0.339686055297777,-0.9062392306387423,-0.8280623505026101
1682095580351532500,4.617532470703125,-0.1644482194006443,-0.8521440678358078,-1.1864169389784336
1682095580371660500,4.63766064453125,0.4705254350852221,-0.7937485774904489,-1.084532435518503
1682095580391788500,4.65778857421875,0.9101286392927169,-0.5715127705097198,-0.6607131489634513
1682095580411916500,4.67791650390625,0.6481506775755435,0.0354576823502779,0.1773182223677635
1682095580432044500,4.69804443359375,0.23969781391322612,0.7942085962176323,0.015216858354210853
1682095580452172500,4.718172607421875,0.29130868561975654,0.44308395899534225,-1.1502455554008484
1682095580472300500,4.738300537109375,0.5519359633803367,0.2973538840681314,-1.6514876888543366
1682095580492428500,4.758428466796875,0.5842319668292999,0.7830360448181629,-1.1092249782264232
1682095580512556500,4.778556640625,-0.12179214997887611,1.6940794608682392,-0.34317630856633186
1682095580532685600,4.798685546875,-0.2958919948220253,0.9895078809559344,-0.2661374925494194
1682095580552813600,4.8188134765625,-0.03412606842033565,0.19401801275610922,0.13298282155692576
1682095580572941600,4.838941650390625,0.5413089170344174,-0.5719435631424188,0.6584995645672083
1682095580593069600,4.859069580078125,0.7812451428133994,-0.7653478279143572,0.4618272379100322
1682095580613197600,4.879197509765625,0.06206570329070091,-0.3801449800014496,0.6361755045562982
1682095580633325600,4.89932568359375,-0.40253158385455606,-0.419208577889204,1.2064485041379929
1682095580653453600,4.91945361328125,-0.18484394169747828,-0.5328484010726213,1.0572153895258902
1682095580673581600,4.93958154296875,0.21624745328612624,-0.7071855618029832,1.0050205073863268
1682095580693709600,4.95970947265625,0.8212311893083155,-0.3800479493677616,1.1208633935719727
1682095580713837600,4.979837646484375,0.01670337058492005,0.8869470856696366,-0.3904705591827631
1682095580733965600,4.999965576171875,-1.7265139960050582,1.1478630441784858,0.3415051604837179
1682095580754093300,5.02009326171875,-1.8350830917954444,1.2962673067510126,0.4112064732193947
1682095580774221300,5.04022119140625,-0.7700806285899132,0.9274445157527923,0.05792202761471271
1682095580794350600,5.0603505859375,-0.14513510470874608,0.5542185213595628,-0.0588157615840435
1682095580814478600,5.080478515625,-0.8779577965933829,0.37307811035513877,-0.4290770609527826
1682095580834606300,5.1006064453125,-1.8056828097879885,0.1785731908649206,0.12534896567761897
1682095580854734300,5.120734375,-1.6287310826450585,0.01638940926492214,0.32884675444066525
1682095580874862300,5.1408623046875,-0.6706605424821377,-0.41820027762949463,0.16988544201850891
1682095580894990300,5.160990234375,0.23911855272054672,-0.8395131343215704,0.5972188741743564
1682095580915119000,5.181119140625,0.5076069192450493,-0.3145207074463367,0.5254512765586375
1682095580935247000,5.2012470703125,0.002843735525943339,-0.1703653344899416,0.8753139310210942
1682095580955375000,5.221375,0.0279074861664325,0.11513152304589748,0.7783399959564209
1682095580975503000,5.241503173828125,0.31033786880373954,0.22615093459784982,0.6956821710139512
1682095580995631000,5.261631103515625,0.4029016227433458,0.05626373901367187,0.5619236889094114
1682095581015759000,5.281759033203125,-0.023342297142744065,0.3434101173222065,0.367764221855998
1682095581035888000,5.30188818359375,-0.7067968547463417,0.3823918821454048,0.4586117829948663
1682095581056016100,5.32201611328125,-0.6057271017353981,0.3823427823066711,0.4111018438011408
1682095581076144000,5.34214404296875,-0.04563187036216259,0.13280804951190947,0.20170038395226
1682095581096272100,5.362272216796875,0.3797100957155227,-0.03393500282764435,0.17762568088173866
1682095581116400000,5.382400146484375,0.41557285173535347,0.32505145381093026,0.18627777389287947
1682095581136528100,5.402528076171875,-0.13572371776290237,0.33177813171744347,0.4011526967167854
1682095581156656400,5.422656494140625,-0.22200842796564102,0.3577764963269234,0.5599047503024339
1682095581176784100,5.4427841796875,0.23078970031440257,0.26449206342995163,0.30268998439908024
1682095581196912000,5.462912109375,0.5702811828881502,-0.09430851524770259,0.20266659863591194
1682095581217040100,5.4830400390625,0.4609294853527099,-0.004584989702701568,0.11268705250322818
1682095581237168000,5.503168212890625,-0.23210246341340243,-0.05429448476731777,0.3629249651312828
1682095581257296100,5.523296142578125,-0.2676215205620974,-0.03449555931985378,0.30625264531672
1682095581277424000,5.543424072265625,0.11079437062442302,-0.0190969146579504,0.30029110656380653
1682095581297553200,5.56355322265625,0.6356815835595131,-0.05091945537626743,0.0674555796355009
1682095581317681200,5.58368115234375,0.44426527773439883,-0.3194844673335552,-0.13113280977606773
1682095581337809200,5.60380908203125,-0.17895488365888595,-0.17391338236033915,-0.26348843934535976
1682095581357937200,5.623937255859375,-0.21780914964489637,-0.0218722245901823,-0.5781657986581326
1682095581378065200,5.644065185546875,0.03366966642234474,0.0301899710804224,-0.6703600982308388
1682095581398193200,5.664193115234375,0.5069412584105506,0.08456278178095818,-0.7055921551316976
1682095581418321200,5.684321044921875,0.565360129631497,0.28369010037481784,-0.8249778284907341
1682095581438449200,5.70444921875,-0.4000771764397621,0.7083586972355842,-0.6803928319454192
1682095581458577200,5.7245771484375,-1.0669476789891719,1.237148178306222,-0.2224713693022728
1682095581478705200,5.744705078125,-0.8708207112550735,1.267702306523919,0.4233317952990532
1682095581498833200,5.764833251953125,-0.17983458910286426,0.630524931448698,0.8878408196389674
1682095581518961200,5.784961181640625,0.26195819757077843,0.1825514468461275,0.9076543581336736
1682095581539090200,5.805090087890625,0.277744380245544,-0.2987023760676384,0.558300822237134
1682095581559218200,5.82521826171875,0.2979851677089929,-0.4403747000366449,0.020439561438560485
1682095581579346200,5.84534619140625,0.4266115476220846,-0.8315472700089216,-0.3111526923179626
1682095581599474200,5.86547412109375,0.6432716002970934,-1.004775592714548,-0.18337620723247527
1682095581619602200,5.885602294921875,0.4951256963998079,-0.9461714280545711,-0.27383623035848137
1682095581639730200,5.905730224609375,-0.046003644550312306,-0.8612088333010673,-0.7041939787715673
1682095581659858200,5.925858154296875,-0.6651157678365707,-0.8043430367410183,-0.8308136950373649
1682095581679986200,5.945986083984375,-0.6600877105414867,-0.5077040229439735,-0.6116431208461522
1682095581700114200,5.9661142578125,-0.32126433648765085,-0.45303485964536666,-0.2672059985637665
1682095581720242200,5.9862421875,0.05329904398918152,-0.14683482129871844,0.0587286678224802
1682095581740370000,6.006369873046875,0.2918167082071304,0.13718904107511043,0.15048691406548023
1682095581760498000,6.026497802734375,0.1261474408452399,0.426554848998785,-0.2067629280388355
1682095581780626200,6.046626220703125,-0.21144494837522507,0.6032587388604879,-0.2934340802758932
1682095581800755200,6.066755126953125,-0.36826106546223164,0.3234282365232706,-0.2683440626829862
1682095581820883000,6.086883056640625,0.018041286391485483,-0.09772329212725162,-0.7011416054636239
1682095581841011000,6.107010986328125,0.3141057334372774,-0.5107160642415285,-0.6335451560527086
1682095581861139000,6.127138916015625,0.49705637220144266,-0.831268453067541,-0.4368722448736429
1682095581881267000,6.147266845703125,0.35595980229377744,-0.8114332872629165,-0.4970125330597162
1682095581901395200,6.167395263671875,0.07538931351052597,-1.0542261445820331,-0.3750280753791332
1682095581921522700,6.187522705078125,0.25700488601233806,-1.1785516124308109,-0.28674013559520245
1682095581941650700,6.207650634765625,0.6385568467348813,-1.1096657077312468,-0.07719137623012065
1682095581961778700,6.22777880859375,1.0623276179730892,-1.0706944643020628,-0.018136545193195342
1682095581981906700,6.24790673828125,1.0475684402585028,-0.7626514284372329,-0.1268242989271879
1682095582002034700,6.26803466796875,0.5951601880788803,-0.5078425546318293,0.028420623320341107
1682095582022162700,6.28816259765625,0.24511929097268728,-0.3699310445010662,-0.016248539489507673
1682095582042291700,6.308291748046875,0.11325984742250293,-0.3303565744817257,-0.37217970021069047
1682095582062419700,6.328419677734375,-0.01346153911948204,-0.32259646187424657,-0.381037544927001
1682095582082547700,6.348547607421875,0.02041270996425301,-0.34797640232443805,-0.1661725589752197
1682095582102675700,6.36867578125,0.010984335350990295,-0.4459422710359096,-0.297175604891777
1682095582122803700,6.3888037109375,0.08219718516077845,-0.58052025282979,-0.043568508091568946
1682095582142931700,6.408931640625,0.29124099067840725,-0.5181061744928359,-0.4224836540371179
1682095582163059700,6.429059814453125,0.3166524587780237,-0.31480595412850376,-0.6987228538841008
1682095582183187700,6.449187744140625,0.24549217940568924,-0.4282546386539936,-0.7139198384940624
1682095582203315700,6.469315673828125,0.4578992508113384,-0.3777373343378305,-0.8678501710116863
1682095582223443700,6.489443603515625,0.4548001888174563,-0.26470716748535633,-0.5693091229856014
1682095582243571700,6.50957177734375,0.24389592319019138,-0.48780397520959373,-0.4597603685081005
1682095582263700700,6.52970068359375,0.11321195316016673,-0.4262316083937883,-0.5217962611824274
1682095582283828700,6.549828857421875,0.08233458433747291,0.04918576345145702,-0.6446013875961303
1682095582303956700,6.569956787109375,0.17795301313996315,0.8500508949488401,-0.8668465469270944
1682095582324084700,6.590084716796875,-0.25286826113164423,1.0385276401907204,-0.8237479944348335
1682095582344212500,6.61021240234375,-0.6160165136247873,0.790074272891879,-0.5132271702796221
1682095582364340500,6.630340576171875,-0.6710953537028282,0.4287240097314119,-0.13915303462445736
1682095582384468500,6.650468505859375,-0.40021987284608185,0.10699965451657771,0.2838619498103857
1682095582404596500,6.670596435546875,-0.022740239596366882,-0.14085633141100407,0.5879162082999945
1682095582424724500,6.690724365234375,0.09326865080595016,-0.2351449729144573,0.6677542996466159
1682095582444852500,6.7108525390625,0.17325119212456047,-0.05141396089494228,1.0551257237702607
1682095582464980500,6.73098046875,0.21917583488821982,-0.020924130085110664,1.291316990867257
1682095582485109500,6.751109619140625,0.3997661377292126,0.007702829462289809,1.1900590948730707
1682095582505237500,6.771237548828125,0.4346703509151935,-0.07194704583585262,1.034522496202588
1682095582525365500,6.791365478515625,0.0977116747546941,0.24025778588354585,0.3368395067602396
1682095582545493500,6.811493408203125,-0.671318129608035,0.6679945381432771,0.04191197305619716
1682095582565621500,6.83162158203125,-1.2510428481459617,1.1234043102264404,0.41836978897750376
1682095582585749500,6.85174951171875,-1.46085931853652,1.6279805565387009,0.1783387975871563
1682095582605877800,6.871877685546875,-1.3813152417004109,1.1372288374394177,0.1749216826200485
1682095582626005800,6.892005859375,-0.7443149767577648,1.0049030184864998,-0.1164852757424116
1682095582646133800,6.9121337890625,-0.6861410202085971,0.6899614552795886,0.0021340894192457198
1682095582666261800,6.93226171875,-0.43334111160542815,0.5110106632739305,0.450745871925354
1682095582686389800,6.9523896484375,-0.11779168216586113,0.33910160647332666,0.8179834395587444
1682095582706518500,6.9725185546875,-0.02067223768327385,0.0853156459748745,1.0878846685558556
1682095582726646800,6.992646728515625,0.05311082794070243,0.12621171998679637,1.1775298681676387
1682095582746774800,7.01277490234375,0.07478961231801659,0.15007541065514088,0.956751858779788
1682095582766902800,7.03290283203125,0.27836572701428086,-0.07195873627364635,0.9337795639932155
1682095582787030800,7.05303076171875,0.5073300019998103,-0.1558171691775322,1.1210393346607685
1682095582807158800,7.07315869140625,0.6639981619834899,-0.08368716799020767,0.8835691336691379
1682095582827286800,7.093286865234375,0.39811789559815075,0.14410218146443365,0.5722837548822164
1682095582847414800,7.113414794921875,-0.040420236661098896,0.25822248164117334,0.5353378798007965
1682095582867542800,7.133542724609375,-0.14319967966675756,0.20845044273436067,-0.016600421667098998
1682095582887670800,7.1536708984375,-0.22743048954699188,-0.05436988809108734,0.11768120752871036
1682095582907798800,7.173798828125,-0.14185758087541908,-0.2531879946053028,0.2777531115412712
1682095582927928000,7.193927978515625,0.08223291406128555,-0.2500111181348562,0.07901625356972217
1682095582948056000,7.21405615234375,0.0814590070793405,-0.12082593529522419,0.24931261447668074
1682095582968184000,7.23418408203125,0.04733458262681961,-0.09008008389770984,0.140619600045681
1682095582988312000,7.25431201171875,0.0010416180074214936,0.01871522186398506,0.3073626523852348
1682095583008440000,7.274440185546875,0.08871171815395355,0.1250035132408142,0.33509003274440763
1682095583028568000,7.294568115234375,0.12325171940373256,0.105413846629858,-0.10368833801150322
1682095583048696000,7.314696044921875,-0.04047227737559005,0.2844534859627485,-0.3768839323788881
1682095583068824000,7.334823974609375,-0.04680380021836608,0.41223055557012556,-0.13977671948075293
1682095583088952000,7.3549521484375,-0.15169745889902114,0.3490244500726461,0.10195347704291344
1682095583109080000,7.375080078125,-0.4014940209677443,0.3725526251763105,0.3720329852163791
1682095583129208000,7.3952080078125,-0.6562894873023033,0.1878238342911005,-0.13688859682381152
1682095583149337000,7.415337158203125,-0.827361508756876,0.0006651859104633331,-0.4762222584873438
1682095583169465000,7.435465087890625,-0.4513455913841724,0.30726620627343654,-0.6474439175456762
1682095583189593000,7.455593017578125,0.052749593412876127,0.302408829370141,-0.31999124781191346
1682095583209721000,7.47572119140625,0.14758359383940695,0.26818682629466056,0.056583472487330436
1682095583229849000,7.49584912109375,-0.2449099956035614,0.15227379748225212,0.02817746221423149
1682095583249977000,7.51597705078125,-0.8601935187786817,-0.33437107082009315,-0.61392275621593
1682095583270105000,7.53610498046875,-0.6357201620042323,-0.507357985985279,-0.5941857900887727
1682095583290233000,7.556233154296875,0.21503391277790068,-0.6137140819013118,-0.12245324423611163
1682095583310360800,7.57636083984375,0.9337561831176281,-0.5929734916895628,0.16966683083176612
1682095583330488800,7.59648876953125,1.028461004206538,-0.4398433696389198,0.14370587562322615
1682095583350618000,7.6166181640625,0.2126981633067131,-0.3641869478911161,-0.40860476628839965
1682095583370746000,7.63674609375,-0.41261750906109806,-0.4657014489948749,-0.7040414185583591
1682095583390873900,7.656873779296875,0.0013824125354178248,-0.2631248667299747,-0.4956552732318639
1682095583411001900,7.677001953125,0.4852262336760759,-0.33678748431205746,-0.11116846463382243
1682095583431129900,7.6971298828125,0.5768477017968893,-0.413035442212224,-0.11625789672732352
1682095583451257900,7.7172578125,0.060164838105440134,-0.2901578350841999,-0.28554654189646245
1682095583471385900,7.7373857421875,-0.3920002529680729,-0.13163140694797038,-0.17066928587257862
1682095583491513900,7.757513916015625,-0.14958499678969384,-0.13739128564894199,0.05476268680095672
1682095583511641900,7.777641845703125,0.30175708746314045,-0.4455880507707596,0.48571723206341266
1682095583531770000,7.79777001953125,0.687567838141322,-0.6099357324063778,0.694921708035469
1682095583551898000,7.817898193359375,0.6023199967056513,-0.29014965177774427,0.30726971340477466
1682095583572027000,7.83802685546875,0.06125789403915405,-0.08210603627860545,0.4354425043314695
1682095583592155000,7.85815478515625,0.1196791033476591,0.2975689881235361,0.2855167312800884
1682095583612283000,7.878282958984375,0.34475217958092685,0.41323242608904837,0.04243512014746666
1682095583632411000,7.898410888671875,0.3148153064787388,0.6297907719552517,0.06743453684747219
1682095583652539100,7.9185390625,-0.12917115431427956,0.9311240810483693,0.0020329671323299405
1682095583672667100,7.938667236328125,-0.9054074559897184,0.8791016328662633,0.2317518233448267
1682095583692795100,7.958795166015625,-0.9684119014352559,0.4650497070878744,0.46278585380911824
1682095583712923100,7.978923095703125,-0.1936836662352085,-0.11047814428210258,0.20238135195374488
1682095583733051100,7.999051025390625,0.5277718284606934,-0.5064344413995743,0.17606091578304767
1682095583753179100,8.01917919921875,0.840285872259736,-0.3510211768478155,0.13170330314040182
1682095583773307100,8.03930712890625,0.7358370712697505,-0.2712076354205608,0.3668026833474636
1682095583793436200,8.059436279296875,0.5940215394377708,-0.3817459854573011,0.590291120737791
1682095583813564200,8.079564208984374,0.8508236328870058,-0.6242459973096847,0.5969973403781652
1682095583833692200,8.099692138671875,1.0513666634976864,-0.6926824046760797,0.5207879609227181
1682095583853820200,8.119820068359376,0.7420891174018382,-0.439458754235506,0.323518837416172
1682095583873948200,8.1399482421875,0.1305436299775727,-0.16362170544862747,0.33811376447975633
1682095583894076200,8.160076171875,-0.1626917311221361,-0.33124797036349773,0.29976269877552986
1682095583914204200,8.1802041015625,0.091648374394048,-0.67832128636837,-0.0808493142157793
1682095583934331600,8.20033154296875,0.42162849851250644,-0.8587947578966617,-0.37530455423295495
1682095583954459600,8.220459716796874,0.40928105811476706,-0.578532293882966,-0.5250970562934875
1682095583974587600,8.240587646484375,-0.0837924001966603,-0.41930619304478167,-0.7856056030452251
1682095583994716700,8.260716552734374,-0.35153438706696033,-0.2201256829589605,-0.9981208110004662
1682095584014844700,8.2808447265625,-0.35844402032494543,-0.41829087852239605,-1.1578823338896036
1682095584034972700,8.30097265625,-0.2285270160794258,-0.5874094278216362,-1.1123615226864814
1682095584055100700,8.3211005859375,-0.13665597537802532,-0.642556145504117,-0.8829968867391348
1682095584075228700,8.341228759765626,-0.22652793295038862,-0.5538444273501635,-0.8364660217106342
1682095584095356700,8.361356689453125,-0.12202184881521388,-0.2034001736074686,-1.0664321306824684
1682095584115484700,8.381484619140625,-0.042404725009202955,-0.37869945736825467,-0.9745277539670467
1682095584135612700,8.40161279296875,0.17719841364668681,-0.44097675758302207,-0.7796522475987673
1682095584155740700,8.42174072265625,0.33006551911327986,-0.3344499812752008,-0.5443804334342479
1682095584175868700,8.44186865234375,0.0013602189699187875,-0.007903320470452307,-0.7048474742442369
1682095584195997700,8.461997802734375,-0.23350944413449615,0.5785013142228126,-0.4781330605447292
1682095584216125700,8.482125732421874,-0.2888285957744345,0.6605313626557588,-0.23725217432677745
1682095584236253700,8.502253662109375,-0.27076628486122933,0.2768383347839117,-0.16511282078921793
1682095584256381700,8.522381591796876,-0.13842176120784133,0.0019219079732894896,-0.018572598522901534
1682095584276509700,8.542509765625,-0.2129073856106028,0.2103454627007246,0.00694295100569725
1682095584296637700,8.5626376953125,-0.6866419554680585,0.08006137870848179,0.2615051565736532
1682095584316765700,8.582765625,-0.4386637314002961,-0.281787481623888,0.3492699492663145
1682095584336893700,8.602893798828125,0.342847807264328,-0.41137481552362437,0.5335749617815018
1682095584357021700,8.623021728515624,0.6402244876861571,-0.3049678662031889,0.5939788693398237
1682095584377149700,8.643149658203125,0.3858160113751888,0.09179974729716778,0.34570728834867476
1682095584397278700,8.66327880859375,-0.17883564119338988,0.3168494426548481,0.36223815191090103
1682095584417406700,8.68340673828125,-0.536422167906165,0.4144581684917211,0.46969665611088274
1682095584437534700,8.70353466796875,-0.6006441724479198,0.48842356841266155,0.5434340924948453
1682095584457662500,8.723662353515625,-0.47278826545067126,0.5900853690326213,0.7449743174493313
1682095584477790700,8.743790771484376,-0.4316565560519695,0.6797802530050278,0.7212123335897922
1682095584497918700,8.763918701171875,-0.39829314256720244,0.606899141189456,0.6040227089703083
1682095584518046700,8.784046630859375,-0.2317762271337211,0.5943687454402447,0.6018740065038204
1682095584538174700,8.8041748046875,0.035556539614871145,0.8654366801291704,0.5078215118438005
1682095584558302700,8.824302734375,0.10560388930924236,0.8896814790695905,0.2722662045627832
1682095584578430700,8.8444306640625,0.021125790137052534,0.5815864207565784,0.2116004311978817
1682095584598559700,8.864559814453125,-0.18343933559656142,0.16989537889063358,0.006322188758850098
1682095584618687700,8.884687744140624,0.008592544843629002,-0.3053857993543148,0.29307050766050813
1682095584638815700,8.904815673828125,0.5022702343922109,-0.32997546620965,0.5256774865299463
1682095584658943700,8.92494384765625,0.7914449036579578,-0.36686581171154975,0.5798860465794802
1682095584679071700,8.94507177734375,0.7692109330832958,-0.2991395984411239,0.6416401997029781
1682095584699199700,8.96519970703125,0.211433842459321,-0.0376449632614851,0.4565232862830162
1682095584719327700,8.98532763671875,-0.19039748417139052,0.09700666829049587,0.7842009969443082
1682095584739455700,9.005455810546875,0.04071377624757588,0.16081716942191124,0.8873831389993428
1682095584759583700,9.025583740234374,0.39221886415481566,-0.0318587810754776,0.7519342195898294
1682095584779712800,9.045712646484375,0.5014953044969588,-0.12783201466500757,0.6791729347616434
1682095584799840800,9.0658408203125,0.17287117983102798,-0.062111880519986146,0.349283977791667
1682095584819968800,9.08596875,-0.3239595669209957,-0.03911503581404686,0.30691315505206584
1682095584840096800,9.1060966796875,-0.3435982603054493,-0.07469955941438675,0.3193494427770376
1682095584860224800,9.126224853515625,-0.168769516665861,-0.2885971616387367,0.2113292130410671
1682095584880352800,9.146352783203126,0.23998488722629843,-0.28116204320192334,0.2491781744420528
1682095584900480800,9.166480712890625,0.3898738353986293,-0.14724983184039592,0.17830372627377508
1682095584920608500,9.1866083984375,0.1452203718394041,0.09830021523237228,0.04022036670744419
1682095584940736500,9.206736572265624,-0.3723486270368099,0.3536246373444795,-0.026411621585488317
1682095584960864500,9.226864501953125,-0.12061733404584228,0.28985972892045975,-0.2748205652207136
1682095584980993500,9.24699365234375,0.6065484645882621,0.1658557481110096,-0.44446050804555415
1682095585001121500,9.26712158203125,0.7844049950838089,0.12114099259376525,-0.036463644522428514
1682095585021249500,9.28724951171875,0.3017664398133755,0.06856617122590541,-0.34183424630761144
1682095585041377500,9.30737744140625,-0.3544061431109905,0.10554828666448593,-0.609015694952011
1682095585061505500,9.327505615234376,-0.20725334190428255,0.38507659118473525,-0.49524376982152457
1682095585081633300,9.34763330078125,0.16050558272209017,0.5390718056321144,-0.5937018059641123
1682095585101761300,9.36776123046875,0.19774492432475088,0.8715309053510427,-0.4114776913762092
1682095585121889300,9.38788916015625,-0.5152630600214004,0.9515338318705558,-0.3512345273375511
1682095585142017300,9.408017333984375,-1.223098610165715,0.4727800090789795,-0.4070090215295553
1682095585162145300,9.428145263671874,-0.742363842689991,-0.43178047469258307,-0.22697744854986665
1682095585182274300,9.4482744140625,0.17645840893434359,-0.89654551962018,-0.03131985189318657
1682095585202402300,9.46840234375,0.6593553046137094,-0.8187129228770732,0.21564181554317474
1682095585222530300,9.4885302734375,0.49931964095830916,-0.5742787280917168,-0.08723696942627429
1682095585242658300,9.508658203125,0.11268881520205176,-0.5516232441693544,-0.300139130872488
1682095585262786300,9.528786376953125,0.1921545569717884,-0.2904769840359688,-0.14037819250524045
1682095585282914300,9.548914306640626,0.2999994301408529,-0.1683002186536789,-0.15387188032865523
1682095585303042300,9.569042236328125,0.14535656543970107,-0.1076408750295639,-0.1896452044993639
1682095585323170300,9.58917041015625,-0.4816320085763931,-0.15263094035685063,-0.10936112295091152
1682095585343298600,9.609298583984375,-1.203652151417732,-0.04392740453183651,0.014727029010653495
1682095585363427300,9.62942724609375,-1.2229039643764494,-0.048043023157119745,0.6482318530529737
1682095585383555300,9.649555419921874,-0.48636079066395754,0.0059784898877143855,0.6111702426373958
1682095585403683300,9.669683349609375,0.04455225843191147,-0.2246972286581993,0.8534428754746913
1682095585423811300,9.689811279296874,0.3317489056229591,-0.1872171005696058,0.775585144290328
1682095585443939300,9.709939208984375,0.032635017011826854,-0.1829606121689081,0.3983423154711723
1682095585464067600,9.730067626953126,-0.004238961877161637,-0.16948270643651484,0.6142348909050226
1682095585484195600,9.750195556640625,0.24810265416502952,-0.39013095196485514,0.5266057072907686
1682095585504323600,9.770323486328126,0.6063198799967765,-0.26043665055930615,0.32830957882404327
1682095585524451600,9.79045166015625,0.5071873055934906,0.22186112844943998,0.2754652928650379
1682095585544580400,9.810580322265626,-0.16343582748770713,0.8631219734460115,-0.0194715931892395
1682095585564708400,9.830708251953125,-0.5025029471695422,1.050574636337161,0.22855624217391013
1682095585584836600,9.850836669921875,-0.3424573466420173,0.6574678834319114,0.21054127753376958
1682095585604964600,9.870964599609374,-0.30616321346759795,-0.0549292755395174,-0.020807225707173346
1682095585625092600,9.891092529296875,-0.36581601039767264,-0.4110702796190977,-0.18236556888520716
1682095585645220600,9.911220703125,-0.5496083972156047,-0.5369032294213771,-0.4143541235953569
1682095585665348600,9.9313486328125,-0.3265864082932472,-0.4970376675009727,-0.3898550576329231
1682095585685476600,9.9514765625,0.25009996546208857,-0.6361234821081161,-0.3058019789397716
1682095585705604600,9.9716044921875,0.6745914521902799,-0.7548486457318067,-0.15239011733829974
1682095585725733600,9.991733642578126,0.8652689223468303,-0.6601613602995872,-0.0739700760960579
1682095585745861600,10.011861572265625,0.4292278676003217,-0.2591045251727104,-0.25340017605125903
1682095585765989600,10.03198974609375,-0.0801788676083088,-0.18418343196213244,0.021640753921866415
1682095585786117600,10.05211767578125,0.10077040473818778,-0.4359837716013193,-0.033950200396776195
1682095585806245400,10.072245361328125,0.3639601533979177,-0.6789584152281284,-0.09172785110473632
1682095585826373400,10.092373291015624,0.2500210550069809,-0.5870289040714503,-0.1334352414995432
1682095585846501400,10.11250146484375,-0.20059271497130393,-0.38012276816964147,-0.3782733409106731
1682095585866629400,10.13262939453125,-0.40257483847439285,-0.3211123607963323,-0.41509821996092794
1682095585886757400,10.15275732421875,-0.16188450639247892,-0.4097182804882526,-0.5196762002885341
1682095585906886400,10.172886474609374,0.2869312742531299,-0.5198720151215791,-0.584854482641816
1682095585927014700,10.1930146484375,0.6226268716752529,-0.4836854339748621,-0.6481190403282642
1682095585947142700,10.213142578125,0.2829635396659374,-0.4156313039243221,-0.8719961847752332
1682095585967270700,10.233270751953125,-0.2405962240576744,-0.2794260131895542,-0.9422153839051723
1682095585987398700,10.253398681640626,-0.019148918839823455,-0.13655308125913143,-0.9572095394194126
1682095586007526700,10.273526611328125,0.2857125461131334,-0.3919675197422504,-0.7328215228408574
1682095586027654400,10.293654296875,0.48359775569140906,-0.40264264301359654,-0.20301438916027545
1682095586047782400,10.313782470703124,0.25503625282049175,-0.28538930550813674,0.037464345997571945
1682095586067910400,10.333910400390625,-0.2694283325220458,-0.07652385223209858,0.14465163204073905
1682095586088039700,10.354039794921874,0.10498482582913711,-0.3994546606272459,0.047376668202877045
1682095586108167400,10.37416748046875,1.2157634449720383,-0.39938101086914535,-0.33913200161159035
1682095586128295400,10.39429541015625,1.4277859009742735,-0.005654664760828018,0.010114566779136656
1682095586148423400,10.41442333984375,0.7419482476264238,0.9310469241589308,-0.1755494591295719
1682095586168551400,10.434551513671876,-0.6332447118014097,1.4810954663574696,-0.33544366848766805
1682095586188679400,10.454679443359375,-1.1707622737288474,0.9784159935772418,-0.4444540783047676
1682095586208807400,10.474807373046875,-0.2692225625505671,0.04124912523329258,-0.18089783442020416
1682095586228935400,10.494935302734374,0.7702016976863145,-0.7641717698723077,0.2643494400888681
1682095586249063400,10.5150634765625,0.8043874604046344,-0.9012503363102674,0.6439478921234607
1682095586269192400,10.5351923828125,-0.19644551389766857,-0.6609948885142802,0.2986129442185163
1682095586289320400,10.555320556640625,-0.6425356872379779,-0.32787527906000613,-0.05805296051800251
1682095586309448400,10.575448486328124,0.20867782174944877,-0.5461304919719696,0.125613754093647
1682095586329576400,10.595576416015625,1.0322592274457216,-0.6685837362080812,0.3973042045950889
1682095586349704400,10.615704345703126,0.7632511478960513,-0.15498773261606694,0.4985241066664457
1682095586369832400,10.63583251953125,-0.5490507633328437,0.48429216769635675,0.18495090920329094
1682095586389960400,10.65596044921875,-1.1502654291450978,0.9644517656326294,-0.3318874373108148
1682095586410088400,10.67608837890625,-1.3247031276404857,0.9525397940427064,-0.4889905546456575
1682095586430216400,10.696216552734375,-1.0198743776470423,0.9363713340520858,-0.031043957561254498
1682095586450345500,10.716345458984375,-0.682058719331026,1.1649135477006434,0.16407061825990676
1682095586470473500,10.736473388671875,-0.9202139799773692,1.2916221112936734,-0.21632044545710086
1682095586490601500,10.7566015625,-1.3998878402233124,0.865220991551876,-0.45517420976161954
1682095586510729500,10.7767294921875,-0.7344166830778122,0.38906419951617716,-0.14074234964251517
1682095586530857500,10.796857421875,-0.08080781316161155,0.02844108158648014,0.47290568128526206
1682095586550985500,10.8169853515625,0.17873685699403286,-0.10087620320022106,0.9253764773070812
1682095586571113500,10.837113525390626,-0.02633683931622654,-0.022881693893671035,0.749282828298211
1682095586591241500,10.857241455078125,-0.7381430101245642,-0.0834936912447214,0.3557698326796293
1682095586611370500,10.87737060546875,-0.34230825702752915,-0.22555296870470046,0.6427391008555888
1682095586631498500,10.89749853515625,0.7217208676338195,-0.0015974983245134354,0.8735901759684085
1682095586651626500,10.91762646484375,1.1125251888155936,-0.018151158240437507,1.1303197887033223
1682095586671754500,10.93775439453125,0.9273065685868263,0.3426455626904964,0.7175093874186277
1682095586691882500,10.957882568359375,-0.22098314003851263,0.40469256128072734,0.46952129954397676
1682095586712010500,10.978010498046874,-0.5614384992083534,0.3386585388809442,0.4303548258036375
1682095586732138800,10.998138671875,-0.010560556980967521,-0.09372633144557475,0.41542438317537306
1682095586752266500,11.0182666015625,0.35572778363618995,-0.37266894503235815,0.5284183096706867
1682095586772394500,11.03839453125,0.624860914337635,-0.2543348265528679,0.4443856892436743
1682095586792523500,11.0585234375,0.4512777868449688,0.13679974949657916,0.5923433770924806
1682095586812651500,11.078651611328125,-0.17082069530831648,0.35084114410579204,0.6480114883005619
1682095586832779500,11.098779541015626,-0.30512627163529393,0.41087680287361145,0.6014718554437161
1682095586852907500,11.118907470703125,-0.49982057621777054,0.25576164448559285,0.8316372863799333
1682095586873035500,11.139035400390625,-0.562939003431797,0.025738252368569373,0.7272218031376599
1682095586893163500,11.15916357421875,-0.5081289703577757,-0.07087912434339523,0.3671165716022253
1682095586913291500,11.17929150390625,-0.4916168114960193,-0.07298223410248755,0.27053426620364185
1682095586933420000,11.199419921875,-0.3021656682640314,0.12580430822968483,0.0700479342162609
1682095586953548000,11.219548095703125,-0.16818039166629314,0.5113911870241165,-0.055680970689654344
1682095586973676800,11.2396767578125,-0.5336287377953529,0.6177730019032954,-0.16533084745407103
1682095586993805000,11.25980517578125,-0.8054583045065402,0.08391746961474418,-0.16196984658837318
1682095587013933000,11.27993310546875,-0.5970651449173688,-0.2881441571742296,-0.1720586944043636
1682095587034061000,11.30006103515625,-0.42901802424192426,-0.6158002405256032,0.025815409258008
1682095587054189000,11.32018896484375,-0.344129079246521,-0.779275815501809,-0.21970599624216555
1682095587074317000,11.340317138671875,-0.18251754457652566,-0.8660551042884588,-0.5039169056206941
1682095587094445000,11.360445068359375,0.11321722299032844,-0.721199474108219,-0.5638648861050606
1682095587114573000,11.380572998046874,0.36994039685130115,-0.6736322517693042,-0.6567500905513763
1682095587134702000,11.4007021484375,0.5392389788925648,-0.5588076027154922,-0.5056184488415718
1682095587154830000,11.420830078125,0.602872369891405,-0.3998942210882902,-0.3874088335245848
1682095587174958000,11.4409580078125,0.4411030508438125,-0.43150691844820976,-0.587797550356388
1682095587195086000,11.461086181640624,0.3466583054631948,-0.3195242148220539,-0.6228513280808925
1682095587215214000,11.481214111328125,-0.04124269092592876,0.06273673442006111,-0.4964946466654539
1682095587235341800,11.501341796875,-0.5028893161386251,0.18751111508011817,-0.25561726757884023
1682095587255469800,11.5214697265625,-0.4451642724007368,0.1673404337108135,0.03798164786994457
1682095587275597800,11.541597900390625,-0.2704506795734167,-0.1573246511310339,0.00101999069750309
1682095587295725800,11.561725830078124,0.08043956437110901,-0.2059568723529577,0.07762333790659905
1682095587315854800,11.581854736328125,0.146919576972723,0.08242693879604339,0.10082827240526676
1682095587335982800,11.60198291015625,0.07313070722904522,0.3445855908423662,0.370582201886177
1682095587356110800,11.62211083984375,-0.08757306951284408,0.025207506492733955,0.6964759517401456
1682095587376238800,11.64223876953125,0.028612346500158307,-0.2986544452726841,0.8104664880573749
1682095587396366800,11.662366943359375,0.1723211447328329,-0.38892099165320393,1.068152378603816
1682095587416494800,11.682494873046876,0.15503858602046966,-0.05992635317444801,1.0231132134377956
1682095587436622800,11.702622802734375,0.2540215410863049,0.23505144941210745,0.9855272868871688
1682095587456750800,11.722750732421876,0.739178198391199,0.2621101367294788,0.9074848467856645
1682095587476880000,11.7428798828125,1.1970675123304129,0.14526187289357184,0.8351414951086044
1682095587497007900,11.7630078125,1.028578493106365,0.2488227851331234,0.8809884695261716
1682095587517136000,11.783135986328125,0.13288929805457592,0.6896341230213642,0.6618208179444074
1682095587537263900,11.803263916015625,-0.48024902978539463,0.9838374341040849,0.3798743463665247
1682095587557392000,11.823391845703124,-0.3493757477283478,0.9069868341356515,0.2079915930509567
1682095587577519900,11.843519775390625,0.3146148154705763,0.5819166756242513,0.13449381064176558
1682095587597648000,11.86364794921875,0.4913303957700729,0.13354279352724552,0.09146014007925987
1682095587617775900,11.88377587890625,0.3023018435980193,-0.17045768894851207,-0.007670680758357047
1682095587637904000,11.90390380859375,-0.15807225462794303,-0.42566286859512326,-0.2439513797044754
1682095587658033000,11.924032958984375,0.18343350864397362,-0.5955068095594644,-0.20427344931066035
1682095587678161000,11.944160888671876,0.7142354803144931,-0.8775731081247329,-0.28356267460286616
1682095587698289000,11.964288818359375,1.0707131690025329,-1.1503612907350063,-0.6083434947788715
1682095587718417000,11.9844169921875,1.1078478446543216,-1.0210264702916145,-0.7962099991679191
1682095587738545000,12.004544921875,0.2847206124663353,-0.7500561507582664,-1.0503384894937275
1682095587758673000,12.0246728515625,-0.28363690888285636,-0.4389069655716419,-0.8838806838363409
1682095587778801000,12.04480078125,-0.12681962275207043,-0.4455687615483999,-0.6404349155664444
1682095587798929000,12.064928955078125,-0.10692246109452098,-0.8130290320217609,-0.6517939294487237
1682095587819058000,12.085057861328124,-0.11795768638253211,-1.060046813559532,-0.6072083532691002
1682095587839186000,12.10518603515625,-0.22380698355389758,-1.160022853049636,-0.8168699253588915
1682095587859314000,12.12531396484375,-0.5478752898126841,-1.1248340507686136,-1.1314958467453717
1682095587879442000,12.14544189453125,-0.37604806607663627,-1.056459018200636,-1.0326152012765406
1682095587899570000,12.16556982421875,0.3531038648733869,-1.0193611674278973,-1.2397966469883919
1682095587919698000,12.185697998046875,0.5293974203685298,-1.0340928726136684,-1.0925012224406003
1682095587939826200,12.205826171875,0.26742347723934795,-0.8084434577971696,-1.1352321106642485
1682095587959954200,12.2259541015625,-0.28004209926128387,-0.4420300660282373,-1.5758762752920388
1682095587980083200,12.246083251953126,-0.26490239779651165,-0.11446575261354446,-1.405131001573801
1682095588000211200,12.266211181640625,0.25002697329111395,0.30232816534936424,-1.0461322699755429
1682095588020339200,12.286339111328125,0.06539868363831192,0.3620832536101341,-0.8175368648350239
1682095588040467200,12.30646728515625,-0.578030774101615,0.5604080236494541,-0.5673568198740482
1682095588060595000,12.326594970703125,-0.6122598645050078,1.285349022373557,0.22939970726072786
1682095588080723000,12.346722900390626,0.08919562921337783,1.6062135458886622,1.0462117649525404
1682095588100851000,12.366850830078125,0.8455307871758937,0.974791957861185,1.086839543417096
1682095588120979000,12.38697900390625,0.9752046303153038,0.3431920906573534,0.5197089335143565
1682095588141108000,12.40710791015625,-0.030112229669094083,-0.02679448342323303,0.48047816236615176
1682095588161236000,12.427236083984376,-0.4068354915935546,-0.1511421631038189,0.6849550252944231
1682095588181364000,12.447364013671875,-0.22927396198920905,-0.42845980583727356,0.5495440998077392
1682095588201492000,12.467491943359375,-0.1343499451916665,-0.6014058044701814,0.3385118238866329
1682095588221620000,12.487619873046874,-0.12128938808850943,-0.34113223551809785,0.13561609266996383
1682095588241748000,12.507748046875,-0.6603039836406708,-0.05307458758354187,-0.24270751712322233
1682095588261876200,12.527876220703124,-0.9630091656088828,0.1080506248742342,0.1546580622702837
1682095588282004200,12.548004150390625,-0.47360418494343753,0.5201362190157175,0.6078729546576738
1682095588302133000,12.568133056640624,-0.23645021029412744,0.85872344622612,0.6953016472637653
1682095588322261000,12.588260986328125,-0.14987075492851434,0.8404770109176635,0.6966898867517709
1682095588342389000,12.608388916015626,-0.3289560600340366,0.8468436233401297,0.49650809066891666
1682095588362517000,12.62851708984375,-0.526890369451046,0.6840677210658789,0.4530319370359182
1682095588382645200,12.648645263671876,0.19444829393215476,0.7569114234805107,0.42266660938858985
1682095588402773200,12.668773193359375,0.6014321810204535,0.7137053189605475,0.2019189951390028
1682095588422901200,12.6889013671875,0.10804244156777858,0.674975483071804,0.40692777298688887
1682095588443030000,12.709030029296875,-0.43895591927990313,0.872813346377015,0.5289648376375437
1682095588463158000,12.729157958984375,-0.8653629573058337,0.7430366273850202,0.5021376209884881
1682095588483286000,12.7492861328125,-0.5201851727239787,0.5146317763805389,0.56576808937788
1682095588503414300,12.769414306640625,0.17048399243354798,0.32980595486164094,0.7581669764995574
1682095588523542300,12.789542236328124,0.5758722078282386,0.079285133638978,1.1120628320008517
1682095588543670300,12.809670166015625,0.7053589308977126,-0.03650573009848594,1.2977145829498766
1682095588563798300,12.82979833984375,0.721628513175249,0.20092296983897684,1.4394184711009264
1682095588583926300,12.84992626953125,0.5610065740644932,0.4036848455429077,1.2063275081068277
1682095588604055000,12.870054931640626,0.5280500608801841,0.24489772064387796,0.8906535389721393
1682095588624183300,12.890183349609375,0.703558603477478,0.162190211340785,0.7554594711065292
1682095588644311300,12.910311279296875,0.7760697129368782,-0.06011047756969928,0.8074918561607599
1682095588664439300,12.930439208984374,0.7865681644670665,-0.016360183170437814,0.5214794503182173
1682095588684567300,12.9505673828125,0.42540158731043337,0.1045510923206806,0.40870121240019797
1682095588704695300,12.9706953125,-0.12208083072714507,0.06245031869411468,0.2882493711143732
1682095588724823300,12.9908232421875,-0.502568340555951,0.09443594101965427,-0.4087175790131092
1682095588744951300,13.010951416015626,-0.6332925695311278,0.0026730186015367506,-0.1752922694981098
1682095588765080300,13.031080322265625,-0.21072942051701246,0.11003799929916858,0.19505378554463385
1682095588785208300,13.051208251953126,-0.10008644106201826,-0.009015665626525879,0.25376550223231314
1682095588805336300,13.07133642578125,-0.3419002242159098,-0.13990999047160146,0.22095921117365358
1682095588825464300,13.09146435546875,-0.6098725309770554,-0.10365969643890857,-0.04568623089790344
1682095588845592300,13.11159228515625,-0.4688227958858013,-0.10501637174487113,0.4270458473861217
1682095588865720000,13.131719970703125,0.08196699313409626,-0.03175064452588558,0.6246329508006573
1682095588885848000,13.15184814453125,0.2863478483419865,-0.3119768681824207,0.5259422749459743
1682095588905976000,13.17197607421875,0.18015308046750722,-0.39685061560869217,0.2768178765177727
1682095588926104800,13.192104736328124,-0.2284182219427079,-0.26222178041040894,-0.4656009112298488
1682095588946232800,13.21223291015625,-0.6849660581450909,-0.32117841176986694,-0.6800701758623123
1682095588966360800,13.23236083984375,-0.540206362619996,-0.14411971712112426,-0.7176198620557784
1682095588986488800,13.25248876953125,-0.5431873511921614,-0.2586959443718195,-1.00072485601902
1682095589006616800,13.272616943359376,-0.5622258136611431,-0.3535667696774006,-1.1703630452781915
1682095589026744800,13.292744873046875,-0.5191005192924291,-0.4557990636616945,-0.9567483516484498
1682095589046872800,13.312872802734375,-0.3444692709863186,-0.3799117557674646,-0.775389329457283
1682095589067001900,13.333001953125,-0.23350655805766582,0.03399871571362018,-0.7663871078342199
1682095589087129900,13.3531298828125,-0.4635538790395483,-0.008587795603275298,-0.7146499063342809
1682095589107257900,13.3732578125,-0.34868305275645106,0.033846740022301675,-0.7168295884609222
1682095589127385900,13.3933857421875,-0.30540329847838726,0.11741641911268233,-0.4969610951334238
1682095589147513900,13.413513916015624,-0.4362871384620666,0.19141455225944518,-0.16831424717903137
1682095589167641900,13.433641845703125,-0.7300771925687789,-0.10272855306863785,-0.10473287862837315
1682095589187769900,13.453769775390626,-0.9649053546190262,-0.5589134011775255,-0.25876316438913344
1682095589207897600,13.473897705078125,-0.7076496721833944,-0.7331096921324729,-0.2576326990544796
1682095589228027000,13.49402685546875,-0.35868308977782726,-0.523054152289033,-0.29180735585689543
1682095589248155000,13.51415478515625,-0.26873160069584845,-0.5110451500654221,-0.26790216413438317
1682095589268283000,13.534282958984376,-0.1592623411953449,-0.49271512812674045,-0.36822599414885043
1682095589288410600,13.55441064453125,0.018108488142490387,-0.5638415052294731,-0.5151601841688156
1682095589308538600,13.57453857421875,-0.00233695504758507,-0.277005508044362,-0.6868196501225232
1682095589328666600,13.59466650390625,-0.5702881971508265,-0.10518003787398338,-0.6548918954640627
1682095589348794600,13.614794677734375,-0.9389613505452871,-0.18506372192800044,-0.56200084579885
1682095589368922600,13.634922607421874,-0.707277331739664,-0.46984921632409093,-0.34793723935782905
1682095589389051600,13.6550517578125,-0.24365093545317648,-0.5404793343424796,-0.16677987721860407
1682095589409179600,13.6751796875,0.06537351266443729,-0.5285328759610652,-0.0481716179728508
1682095589429307600,13.6953076171875,0.09118075688229874,-0.33703298350572586,-0.4069891477853059
1682095589449435600,13.715435546875,-0.021318682360649106,-0.15790449684560298,-0.4509574688494205
1682095589469563600,13.735563720703125,-0.033544523939024656,-0.17833938210904599,-0.4208990151941776
1682095589489691600,13.755691650390625,0.256205314866174,-0.40590836681127546,-0.1611316421985626
1682095589509819600,13.775819580078124,0.43762335550189013,-0.6320318288803101,0.056015317210555075
1682095589529948700,13.79594873046875,0.4726432309567928,-0.46619361642599105,-0.06563420942723751
1682095589550076700,13.81607666015625,-0.0015221132670529185,-0.4064712613910436,-0.2407832710623741
1682095589570204700,13.83620458984375,0.16006841514753176,-0.1514548823148012,-0.14675532632172106
1682095589590332700,13.856332763671874,0.6932546516060829,0.08315174593925476,0.09775076465606689
1682095589610460700,13.876460693359375,0.9556704932838678,0.3667798869937658,0.3146037095546722
1682095589630588700,13.896588623046876,0.9918722719997167,0.8695014453500509,0.3711111941963434
1682095589650716700,13.916716552734375,0.49269642342627046,1.207658464449644,0.43909693518579
1682095589670845700,13.936845703125,-0.17251991870794445,1.19185065446496,0.8230857311338186
1682095589690973700,13.9569736328125,0.4727034732440486,1.17601712551713,1.1987205402344465
1682095589711101700,13.977101806640626,0.9772095403969288,0.663794748365879,1.4595260241061447
1682095589731229700,13.997229736328125,1.0153303044766187,0.45803018371462817,1.2838695974707603
1682095589751357700,14.017357666015625,0.321698636251688,0.5368973842024802,0.9638912091404199
1682095589771485700,14.037485595703124,-0.44442898039612916,0.34637305878102775,0.7802122195690869
1682095589791613700,14.05761376953125,0.05294486025664955,0.3911684783190489,0.7096995904505252
1682095589811742000,14.077741943359374,0.9722282448530196,0.2597983526557684,1.0978151109397412
1682095589831870700,14.09787060546875,1.1370236702561378,0.10602525652647017,1.1021171920478343
1682095589851998700,14.117998779296874,0.7741046234089881,0.2078618291914463,0.8287275364130735
1682095589872126700,14.138126708984375,0.2677718157529831,0.14946049362719058,0.6291571502268314
1682095589892254700,14.158254638671876,0.058068742609024046,0.2355032848328352,0.5127613063335419
1682095589912382700,14.1783828125,-0.21542552417768165,0.18439210627675057,0.5043061971992254
1682095589932511000,14.198510986328126,-0.37361123085115105,0.08494856622815132,0.3478998299568891
1682095589952639000,14.218638916015625,-0.41887072423696514,-0.08207330305278301,0.21709961313605308
1682095589972768000,14.23876806640625,-0.38083471583127976,-0.15088672703802586,0.021567104163765907
1682095589992896000,14.25889599609375,0.0356143342167139,-0.055088850015401834,0.0934282252818346
1682095590013024000,14.27902392578125,0.4675204445829615,-0.024929858595132828,0.15329261913597583
1682095590033152000,14.299152099609374,0.4870920275479555,-0.16223755761384964,0.16914193017482756
1682095590053280000,14.319280029296875,0.4163263369837776,-0.3508481583684683,0.11481588122546672
1682095590073408000,14.339407958984374,0.2827578244933858,-0.3160509857535362,-0.10627484737336634
1682095590093536300,14.359536376953125,0.29556228794362394,-0.3611684768527746,0.08000175747573375
1682095590113664300,14.379664306640626,0.7742588641226291,-0.22787527417242526,0.046857612764835355
1682095590133793000,14.39979296875,0.9982195951998233,-0.17210370258986948,0.14178338312804697
1682095590153921000,14.419921142578126,0.7541688467741012,-0.2861187888264656,0.0979676222771406
1682095590174049000,14.440049072265625,0.3904863412737846,-0.10633271504044532,-0.06614098990559578
1682095590194177000,14.460177001953125,-0.049809996297024185,0.17887129702866075,0.00003682487905025482
1682095590214305300,14.48030517578125,0.005258395452238619,0.24400924737155436,0.46855566938221455
1682095590234433300,14.500433349609375,0.7888795101493596,0.3889186535656452,0.8695335940539837
1682095590254561300,14.520561279296874,1.221805136289075,0.7309037065207957,1.048735730472207
1682095590274690000,14.54068994140625,0.5524620330810547,1.1183400125741958,0.46694180444478983
1682095590294818000,14.560818115234374,-0.7234850277621299,0.9664847327649593,-0.0953624082148075
1682095590314946000,14.580946044921875,-0.9552496375232934,0.7104314118564129,-0.13592355118393898
1682095590335074300,14.60107421875,-0.3436620097240433,0.4439484668701887,0.1365793847441673
1682095590355202300,14.621202392578125,0.07436112124025822,0.08302139755785465,0.23886837735176086
1682095590375330300,14.641330322265626,0.0455226013014093,-0.1529798999249935,0.05664192467629909
1682095590395458300,14.661458251953125,-0.26760347344875335,-0.051500470134615894,-0.2980594019889831
1682095590415587000,14.681587158203126,-0.6168120479166508,-0.06613105303347111,-0.33496377601623534
1682095590435715000,14.701715087890625,-0.35215222670435903,0.019987726017832753,0.08214636828899383
1682095590455843300,14.72184326171875,0.1329553490281105,-0.020357143852114675,0.4528969124794006
1682095590475971300,14.741971435546875,0.17297292317245155,0.023485505005717278,0.7114654310792684
1682095590496099300,14.762099365234375,-0.22324761437177656,0.033900516036152836,0.5195096115499734
1682095590516227300,14.782227294921874,-0.5933423980671912,-0.09217559487223624,0.12603928602933884
1682095590536355300,14.802355224609375,-0.15236381385326384,0.027638533031940457,0.08517769880890846
1682095590556484000,14.822484130859374,0.11173019016981124,0.03656593585312366,0.15829671103358267
1682095590576612400,14.8426123046875,-0.40534371866583824,0.050047933238744735,-0.37982290844023225
1682095590596740400,14.862740234375,-1.0414045838665216,-0.14712532867789269,-0.4774550151526928
1682095590616868400,14.882868408203125,-0.5282599042385816,-0.12073942605555057,-0.28323884947597977
1682095590636996400,14.902996337890626,0.11300400949791073,-0.09176116885244846,-0.0488555085837841
1682095590657124000,14.9231240234375,0.5807213283598422,-0.07200608254671097,0.04279986180663108
1682095590677252000,14.943252197265625,0.72677405937016,0.2274117483139038,0.12086334469616412
1682095590697381400,14.96338134765625,0.09291801073737442,0.3889326820909977,0.04426058200895786
1682095590717509400,14.98350927734375,-0.6742554251689463,0.2080710880279541,-0.02851297777891159
1682095590737637000,15.00363720703125,-0.6929489466577768,0.0006786299139261245,0.4907476274460554
1682095590757765000,15.02376513671875,0.017023615515232085,-0.06966741046607494,1.0082663574397563
1682095590777893000,15.04389306640625,0.5841080481886863,-0.05846446392834186,0.7913572984397411
1682095590798021000,15.064021240234375,0.4645039097733795,0.043614685320854184,0.34230186381936073
1682095590818149000,15.084149169921876,-0.13783954087309538,0.15658873807191848,0.17214286555647848
1682095590838278100,15.104278076171875,-0.24488537261895835,0.49943829890191554,0.3585322831302881
1682095590858406100,15.12440625,-0.06241517431549728,0.21949323027431963,0.6680857235580683
1682095590878534100,15.1445341796875,0.19065058214962483,-0.09683715694248676,0.8102186507761477
1682095590898662100,15.164662109375,0.3855067992955446,-0.2408662731707096,0.738698890441656
1682095590918790100,15.1847900390625,0.019061185757443307,0.016033435434103013,0.5207558122187853
1682095590938917000,15.204917236328125,-0.5202151294708252,0.06326046603322029,0.20535656837224958
1682095590959045000,15.225045166015626,-0.3673253189820796,-0.095924718272686,-0.14603168822228907
1682095590979174400,15.24517431640625,0.05521211106888949,-0.39353462292850017,-0.18018179510533808
1682095590999302400,15.265302490234374,0.252529238435626,-0.5813841761827468,-0.19314006087779997
1682095591019430100,15.28543017578125,0.09183416102342307,-0.5153583370894194,-0.433481433391571
1682095591039558100,15.30555810546875,-0.2795481782644987,-0.4507622385382652,-0.6109399410128593
1682095591059686100,15.32568603515625,-0.34248306560516356,-0.36352351554632184,-0.7754115412890911
1682095591079814100,15.345814208984375,-0.24538287381231783,-0.4598673360139131,-0.8519044138610362
1682095591099942100,15.365942138671874,0.1414987209677696,-0.3926309520870447,-0.827629804304242
1682095591120071200,15.3860712890625,0.19917291130125522,-0.369642290687561,-0.8152958079099655
1682095591140199200,15.40619921875,-0.28187629241850226,-0.3296066328972578,-1.2573527619451283
1682095591160327200,15.4263271484375,-0.7237017392527312,-0.325699104064703,-1.2601327480524778
1682095591180455200,15.446455078125,-0.426290060582757,-0.22153671880066395,-1.1861796230912207
1682095591200583200,15.466583251953125,-0.1104769752383232,-0.39051147571504113,-1.2769570416033267
1682095591220711200,15.486711181640626,-0.12103636317551135,-0.568800588941574,-1.445327402883768
1682095591240839200,15.506839111328125,-0.1136100125670433,-0.7137894901126622,-1.381840726879239
1682095591260968200,15.52696826171875,-0.14701193143129349,-0.5392506693303585,-1.1989613632529974
1682095591281096200,15.54709619140625,-0.3059866878569126,-0.35385552349090577,-1.0039408954560756
1682095591301224200,15.56722412109375,-0.5262883119046687,-0.43704058717787264,-0.9005161768168211
1682095591321352200,15.587352294921875,-0.3313607465555891,-0.1447059925764799,-0.8624088567405939
1682095591341480200,15.607480224609375,-0.11424242871906608,0.17624971635341644,-0.5943769287467002
1682095591361608200,15.627608154296874,-0.13112577724708244,0.6063970368862152,-0.4870230539649725
1682095591381736200,15.647736083984375,-0.5258113420426845,0.5897042607605457,-0.09080664460659027
1682095591401865200,15.667865234375,-0.8472668171882629,0.20145605380237103,0.11401099458336829
1682095591421993200,15.6879931640625,-0.8419342239886521,-0.2220604504138231,0.23245967935323714
1682095591442121200,15.708121337890624,-0.37764907153248783,-0.32122400447726246,0.34310090524256226
1682095591462249200,15.728249267578125,0.4649503383666277,0.12765022835731504,0.31259295425415035
1682095591482377200,15.748377197265626,0.6964326971203089,0.6018927112042903,0.5415916794985532
1682095591502505200,15.768505126953125,-0.1270475862890482,0.9373971699684858,0.5001344644725323
1682095591522633200,15.78863330078125,-0.4228314445614815,0.5859872860640287,0.5501157622158527
1682095591542762200,15.80876220703125,0.23682956500053404,0.04311784171462059,0.6149515147417783
1682095591562890200,15.82889013671875,0.7536381008982658,-0.47227147503495215,1.0223147565364836
1682095591583018200,15.849018310546874,1.022495446865633,-0.6885328837811946,1.0229945554941893
1682095591603146200,15.869146240234375,1.1184861430466175,-0.6442746398597955,0.7809037089645862
1682095591623274200,15.889274169921874,1.3949006994605064,-0.4669920733273029,0.7836205667078494
1682095591643402200,15.90940234375,1.565806716698408,0.009452888000011444,0.6846013895511627
1682095591663530200,15.9295302734375,1.1334142475873232,0.44420214937031266,0.624139029803872
1682095591683659300,15.9496591796875,0.5085685308188199,0.7218927170693874,0.9500573295772075
1682095591703787300,15.969787353515626,0.23979192193746565,1.2939070073604584,1.3411959972798824
1682095591723915300,15.989915283203125,-0.3313292189061641,1.7357798370003699,1.177872397994995
1682095591744043300,16.010043212890626,-0.593461567467451,1.8213941736608743,1.2640817779392004
1682095591764171300,16.030171142578126,-0.3221545633256435,1.6337924576878546,1.636902698662877
1682095591784299300,16.05029931640625,-0.028733908786904065,1.1102671807557343,1.7846739240288734
1682095591804427300,16.07042724609375,0.37232583068311215,0.789417854809761,1.8336656262129545
1682095591824556300,16.090556396484374,0.5537655168950557,0.422739090102911,1.5181664291232824
1682095591844684300,16.110684326171874,0.5698381152957678,0.0579179359614849,1.2273580211758612
1682095591864812300,16.130812255859375,0.942919148260355,-0.12557283756136894,1.2751514534860848
1682095591884940300,16.150940185546876,1.2587006694227456,-0.19223755908012388,1.2451286556661127
1682095591905068000,16.171068115234377,0.8823451448321342,-0.21474398992061614,1.0315653999626635
1682095591925196800,16.19119677734375,0.11135960329174995,-0.08620470376908779,0.6846832226157188
1682095591945324500,16.211324462890627,-0.5426952568262815,-0.06137187580764293,0.37274317931234835
1682095591965453800,16.231453857421876,-0.4206459172159433,-0.012942483681440353,0.40727731707692144
1682095591985581800,16.251581787109377,0.09240706554055213,-0.15495207678079603,0.2640893278479576
1682095592005709800,16.271709716796874,0.231831300055515,-0.36529169426262376,-0.07023790383040905
1682095592025837600,16.291837646484375,0.02076221752166748,-0.43227322664558887,-0.26508476862609387
1682095592045965600,16.311965576171875,-0.3820604582339525,-0.320447174885869,-0.4864882164359092
1682095592066093600,16.332093505859376,-0.24851065044403076,-0.2645148597836494,-0.3397363972455263
1682095592086221600,16.3522216796875,-0.029652795463800428,-0.3775035255819559,-0.5226116692185402
1682095592106350600,16.3723505859375,0.05603464296553284,-0.7130149986088276,-0.7025263378202915
1682095592126478600,16.392478515625,0.19949322929680346,-0.6233791513472795,-0.8746241951912641
1682095592146606600,16.412606689453124,0.06539981614947318,-0.597911532613635,-1.083961942154169
1682095592166734600,16.432734619140625,0.18728547136439008,-0.425411524182558,-1.0146171877712011
1682095592186862600,16.452862548828126,0.25216915468527,-0.5914660097360611,-1.0740396830767391
1682095592206990600,16.472990478515626,0.2098573869228363,-0.9686626613259315,-1.1486936497837303
1682095592227118800,16.493118896484376,0.4701081595212221,-0.9759954884320496,-1.0067238041728734
1682095592247247600,16.51324755859375,0.5344096955725923,-0.6710276222288608,-1.0331716661155224
1682095592267375600,16.533375732421874,0.31110008534789085,-0.7027519632697105,-0.729215607303381
1682095592287503600,16.553503662109375,0.19416122061908245,-0.5404501082479953,-0.44418110658228394
1682095592307631600,16.573631591796875,0.32347733636200426,-0.08691665143072605,-0.3116641489714384
1682095592327759600,16.593759521484376,0.23045948197934776,0.23374971916377543,-0.3691781803071499
1682095592347887900,16.613887939453125,0.05433136444529518,0.7360112587928771,-0.7083855852425098
1682095592368016600,16.6340166015625,-0.35780751251969484,1.0123632713645696,-0.5925538049727678
1682095592388144600,16.65414453125,-0.6464683505117893,0.9560036707609891,-0.237170925784111
1682095592408272600,16.674272705078124,-0.2564688794394955,0.5775169793605804,-0.14931494767665862
1682095592428400600,16.694400634765625,0.33478962502572684,0.25779519613981244,-0.3224748813211918
1682095592448528600,16.714528564453126,0.35356329907868056,0.08291793718338013,-0.28838498019278047
1682095592468657000,16.734656982421875,0.22047639609277248,0.07052490407824516,-0.26336101357340813
1682095592488785000,16.754784912109375,0.3262690129071474,0.18832535407245157,0.10396423234343528
1682095592508913700,16.77491357421875,0.3223562233775854,0.13158406067490577,0.28358430191278455
1682095592529041700,16.795041748046874,0.07910619687549769,0.005457096362113952,0.38175416876375673
1682095592549169700,16.815169677734374,-0.20057810192406175,-0.059282210052013395,0.5101449863553047
1682095592569297700,16.835297607421875,-0.46272038735747334,-0.1671662461876869,1.0712585279256104
1682095592589426000,16.855426025390624,-0.3149263656377792,-0.18039280750751494,1.3995681067496537
1682095592609554000,16.875553955078125,-0.19405593361370263,-0.2219260103791952,1.3516840735465288
1682095592629682700,16.8956826171875,-0.36543190645091234,-0.23824001632034777,1.128117894744873
1682095592649810700,16.915810791015623,-0.20720066186897457,0.11778174529373645,0.8876718928128481
1682095592669938700,16.935938720703124,-0.31512510308027264,0.6253320389807224,0.5986965455114841
1682095592690066700,16.956066650390625,-0.4561391823362559,0.788255825293064,0.5844657755851745
1682095592710195000,16.97619482421875,-0.44740240671634673,0.8330027295142411,0.6224421627581119
1682095592730323000,16.996322998046875,-0.6027385143786669,0.8719073374480009,0.631151538914442
1682095592750451000,17.016450927734375,-0.5242284567654133,1.0957646081507206,0.6642395695239305
1682095592770579700,17.036579833984376,-0.7013613126289099,0.9859639247387647,0.7954957134187222
1682095592790707700,17.056707763671874,-0.46177346189618107,0.8992273060500622,0.7864508216977119
1682095592810835700,17.076835693359374,0.14372932956404982,0.6269914966255427,0.6353127502471209
1682095592830964000,17.0969638671875,0.6572364127635956,0.3390454923719167,0.6448205833047628
1682095592851092000,17.117092041015624,0.9334511357564479,0.017043489259481428,0.6522749909639358
1682095592871220000,17.137219970703125,0.694283994653821,-0.21573417000174522,0.46676235622465606
1682095592891348700,17.1573486328125,0.2997656944502145,-0.4518260683774948,0.5777969653457403
1682095592911476700,17.177476806640627,0.5165788187950849,-0.41899698096513743,0.5948375319957733
1682095592931604700,17.197604736328124,0.5524416478801518,-0.5582201582163572,0.4343465257883072
1682095592951732700,17.217732666015625,0.5718716669499874,-0.3074228581398725,0.3703250122547149
1682095592971860700,17.23786083984375,0.20280505725853143,0.1567629255950451,0.20306115091145038
1682095592991988700,17.25798876953125,-0.3296012260697782,0.3673655779272318,0.36857846084833146
1682095593012116700,17.27811669921875,-0.12491744239255785,0.5390484247565269,0.405297541436553
1682095593032245800,17.298245849609376,-0.13973222275190056,0.23976444940865038,0.4183849865466356
1682095593052373800,17.318373779296873,-0.2527518682103604,0.03193418439924717,0.2212467959433794
1682095593072501800,17.338501708984374,-0.42120990777425465,0.10145020369589328,-0.09807458978295326
1682095593092629800,17.358629638671875,-0.6342674789778888,-0.006625555619597435,-0.3029875060409307
1682095593112757800,17.3787578125,-0.29980230013355613,-0.1720680467545986,-0.408594829416275
1682095593132885800,17.3988857421875,0.03994049032013863,-0.4795879355281591,-0.330602073675394
1682095593153014800,17.419014892578126,0.014726444488763809,-0.867108412733674,-0.43235155257880686
1682095593173142800,17.439142822265627,-0.10620821187794208,-0.9245359348297119,-0.6133043320566416
1682095593193270800,17.459270751953124,-0.20058800226356832,-0.7203180150985717,-0.42288989675045013
1682095593213398800,17.479398681640625,-0.0072714523077011105,-0.3324889103353023,-0.21574293783009052
1682095593233526800,17.49952685546875,-0.11894377481043338,-0.09840601369440555,-0.10352934805750846
1682095593253654800,17.51965478515625,-0.4714718125572428,-0.211424490109086,0.0311877499461174
1682095593273782800,17.53978271484375,-0.5579401356985793,-0.2823106287151575,-0.20242168396413326
1682095593293911800,17.559911865234376,-0.2865495449265465,-0.08387947569191455,-0.38363048402965066
1682095593314039800,17.580039794921873,0.4519570012807846,0.3705062140405178,-0.5481523531883955
1682095593334167800,17.600167724609374,0.9447264899432659,0.6673106475323438,-0.5918412727892398
1682095593354295800,17.6202958984375,0.8161836966603994,0.7293903793483972,-0.6801636993646621
1682095593374423800,17.640423828125,-0.014707137000095098,0.654264703476429,-0.6022153672873973
1682095593394551800,17.6605517578125,-0.7027882036268711,0.6012719489574432,-0.18570377339720726
1682095593414679800,17.6806796875,-0.9732967508673668,0.48794718307256696,-0.011555997759103775
1682095593434808800,17.700808837890627,-1.1250643523931503,0.16972762110829354,0.12185118668973445
1682095593454936800,17.720936767578124,-0.9995546431958675,-0.08071312061548233,0.11345394522249698
1682095593475064800,17.74106494140625,-0.7668938883125782,-0.4152823443561792,0.005049684605002403
1682095593495192800,17.76119287109375,-0.26225159102678297,-0.49138475630581374,-0.11235562859177589
1682095593515320600,17.781320556640626,0.16477204452753066,-0.5738526116341353,-0.354136678519845
1682095593535448600,17.801448486328123,0.469392120206356,-0.6205185012191534,-0.686137513077259
1682095593555577900,17.821577880859376,0.45285599594712256,-0.6341530588179827,-0.8857885632842779
1682095593575705900,17.841705810546873,0.3131540952682495,-0.4169166675597429,-0.949407341235876
1682095593595833600,17.86183349609375,0.29964579439759254,-0.1464145500600338,-0.4899532621979713
1682095593615961600,17.881961669921875,0.4032826944828033,0.16872575058937073,0.07837035688161849
1682095593636089600,17.902089599609376,0.26680969272255894,0.2294634201467037,0.5355635052502155
1682095593656217600,17.922217529296876,-0.042018949695164336,0.24997487777769564,0.6675467943757772
1682095593676345600,17.942345703125,-0.31738837183713914,0.1676245113492012,0.9462187743276357
1682095593696474600,17.962474609375,-0.07878887455463408,0.2673509599924087,0.889979000711441
1682095593716602600,17.9826025390625,-0.017872341299057005,-0.023102643167972562,0.7515770767152309
1682095593736730600,18.002730712890624,0.20850246518254278,-0.25918109754025936,0.6659539722263813
1682095593756858600,18.022858642578125,0.6842728882491588,-0.32849253417551516,0.7389297765880822
1682095593776986600,18.042986572265626,0.6682312695086002,-0.37148295011818405,0.6338947001427412
1682095593797114600,18.063114501953127,0.21016952161192892,-0.2659188813626766,0.26255671145319937
1682095593817243600,18.08324365234375,-0.20012745381342245,-0.1150865148603916,-0.103310152348876
1682095593837371600,18.10337158203125,-0.014462249727779998,0.015131518158316612,-0.16763444822132587
1682095593857499600,18.123499755859374,0.4242705374538898,0.28297523010373116,0.14627660289406774
1682095593877627600,18.143627685546875,0.20430793610215187,0.4419797971457243,0.5930529866665601
1682095593897755600,18.163755615234376,-0.17131985873579977,0.4278922350823879,0.5580939014881849
1682095593917883600,18.183883544921876,-0.5654021786749363,0.15509879177510738,0.6836532950460911
1682095593938012400,18.204012451171874,-0.18989479534626005,-0.24039865565896032,1.1706851168394088
1682095593958140400,18.224140380859374,0.5429208822757006,-0.384306775856018,0.9331880278408526
1682095593978268400,18.244268310546875,0.5795499464929104,-0.6210720434486866,0.7403840670496225
1682095593998396400,18.264396484375,0.39296003791093825,-0.5340525161653756,0.1104249527901411
1682095594018524400,18.2845244140625,-0.15367370914174244,-0.4835100774079561,0.06753975078761577
1682095594038652400,18.30465234375,0.136626749283541,-0.040699674656987185,0.16775719781816004
1682095594058780400,18.324780517578127,0.7268471246063709,-0.21986557071805,0.1476513983786106
1682095594078909400,18.344909423828124,0.8976514350354671,-0.5156850848257541,0.009932195949554443
1682095594099037400,18.365037353515625,0.31052842293977734,-0.5446300242811442,-0.1832745004236698
1682095594119165400,18.38516552734375,-0.039305589950084686,-0.30190204889178274,-0.35481355486810207
1682095594139293400,18.40529345703125,-0.08565295163784176,-0.28125907383561133,-0.24971184292733667
1682095594159421400,18.42542138671875,0.063787156788446,-0.522550294420123,-0.5291138907194137
1682095594179549400,18.445549560546876,0.11347323444485664,-0.607300123205781,-0.6449257972449064
1682095594199678500,18.465678466796874,0.07522628670223057,-0.4607189844071865,-0.8431874389201403
1682095594219806500,18.485806396484374,0.06757953480873256,-0.181138657438755,-0.7094985149204731
1682095594239934500,18.5059345703125,0.2465531597007066,0.3460147468626499,-0.963503086605668
1682095594260062500,18.5260625,0.34335462427530433,0.2705594006448984,-0.8582610894113779
1682095594280190500,18.5461904296875,0.6296235986948013,0.13998539379537106,-0.5821031381070614
1682095594300318500,18.566318359375,0.6080454616803675,0.3751625154137611,-0.3029939357817173
1682095594320446500,18.586446533203127,0.1688093372195959,0.804621269160509,-0.1829740561723709
1682095594340575500,18.606575439453124,0.08222761683166027,1.0465823518306017,-0.4396756118565798
1682095594360703500,18.626703369140625,0.6603770488768815,0.654510787191987,-0.2708329568892717
1682095594380831500,18.64683154296875,0.9375492187250405,0.4169552460044622,0.3286836728334427
1682095594400959500,18.66695947265625,0.2753915700417012,0.2618587923169136,0.8063157981187105
1682095594421087500,18.68708740234375,-0.7027532053787261,0.13505319809019564,0.6507897208422422
1682095594441215500,18.707215576171876,-1.0112274722676724,0.0051198272317647935,0.5047621242731809
1682095594461344500,18.727344482421874,-0.6390110202431678,-0.29438626643419263,0.6119710376262665
1682095594481472500,18.747472412109374,0.4718114563077688,-0.09371931718289851,0.7929945442527532
1682095594501600500,18.7676005859375,0.6562392184197903,-0.05612812993526459,1.2099871996581553
1682095594521728500,18.787728515625,0.3742962539732456,0.312884630677104,0.8698989202350378
1682095594541856300,18.807856201171877,-0.6042408087003975,0.5129518604695796,0.21472703878581523
1682095594561984300,18.827984375,-1.1106979733884335,0.2588338915377855,0.4945850136518478
1682095594582113500,18.848113525390627,-0.2833177599310875,0.4771107317596674,0.9865554608911276
1682095594602241500,18.868241455078124,0.1426665957033634,0.5146750310003757,1.344380472534895
1682095594622369300,18.888369384765625,0.042996261161565776,0.8787766386955976,0.9833569571107625
1682095594642497300,18.908497314453125,-0.7702577387224883,0.8188783425718545,0.6405892293453216
1682095594662625300,18.928625244140626,-0.7032996602803468,0.8427806116849184,0.46729134853482246
1682095594682753300,18.948753173828123,-0.13870003015995025,0.7345049458831548,0.6403150885790586
1682095594702882300,18.96888232421875,0.053978185359761115,0.6994763025999069,0.9269190305739641
1682095594723010300,18.98901025390625,-0.12570844663977623,0.987026585534215,0.7556511942863464
1682095594743138300,19.00913818359375,-0.5124222836375236,1.0594891796767711,0.2020972743153572
1682095594763266300,19.029266357421875,-0.8052315100133418,0.6370674849599599,0.31711598463654517
1682095594783394300,19.049394287109376,-0.5460218439657241,0.06685702922046184,0.6394312914818525
1682095594803522300,19.069522216796877,-0.1593628058951348,-0.15298574514389038,0.6272539469540119
1682095594823650300,19.089650390625,-0.46729427114427086,-0.3789513863027096,0.46002924857735633
1682095594843779300,19.109779296875,-0.7787176701623946,-0.26650164968669415,0.28837796593010423
1682095594863907300,19.1299072265625,-0.2686428264338523,0.01296177290380001,0.37133038990497585
1682095594884035300,19.150035400390625,0.33173020092248917,-0.21631518476009368,0.6241127263188362
1682095594904163300,19.170163330078125,0.7392903535287827,-0.4213590339213609,0.5151134224176407
1682095594924291300,19.190291259765626,0.7137596794962883,-0.5085176774144172,0.37317689455449576
1682095594944419800,19.210419921875,0.2202957788288593,-0.1328121411651373,0.1957172178894281
1682095594964548900,19.230548828125,-0.17514014767631889,0.18139526254832744,0.3733364690303802
1682095594984676900,19.2506767578125,-0.010657003092765807,0.5951864915639161,0.5090916779100895
1682095595004804900,19.270804931640626,0.07974814804084598,0.3223375186771154,0.5175350966066121
1682095595024932900,19.290932861328123,0.03318447672128677,-0.03185702750980854,0.5152800111562014
1682095595045060900,19.311060791015624,-0.27473120643682775,-0.012765373548865318,0.42414778785705565
1682095595065188900,19.33118896484375,-0.44306518122963606,0.12395955714583397,0.32857086010873315
1682095595085318000,19.35131787109375,0.19352818341255187,0.22015549357533454,0.18051964875757692
1682095595105446000,19.37144580078125,0.8638537217866629,0.010099369210004806,-0.03435059789121151
1682095595125574000,19.391573974609376,0.8321417287707328,-0.2672159354358911,-0.14551730895936488
1682095595145702000,19.411701904296876,0.254948647602275,-0.23379180473983285,-0.4767956744611263
1682095595165830000,19.431829833984374,-0.4881559304524213,-0.1350900229692459,-0.570246111574769
1682095595185958000,19.4519580078125,-0.5018604845475405,-0.03772621180415153,-0.4693547108054161
1682095595206087000,19.4720869140625,-0.3466682423353195,-0.12520984946787356,-0.4212386224120855
1682095595226215000,19.49221484375,0.12257190217971801,-0.27106968825459477,-0.14845277788937092
1682095595246343000,19.512343017578125,0.42056934484839437,-0.16405892782211304,0.0870575212061405
1682095595266471000,19.532470947265626,0.2852035006124526,-0.05704524478018284,-0.362922627043724
1682095595286599000,19.552598876953127,-0.11225388525035232,-0.12212123580276965,-0.6699754828274249
1682095595306727000,19.572726806640624,-0.17251516946759074,-0.3488905945599079,-0.7145645661383867
1682095595326855000,19.59285498046875,0.1441969470757991,-0.5436527036815881,-0.5502151309370994
1682095595346984000,19.61298388671875,0.32844628388099373,-0.3121650842308998,-0.4941840316355228
1682095595367112000,19.63311181640625,-0.05382982639763504,0.04718728311061859,-0.680963909831643
1682095595387240000,19.653239990234376,-0.3846703484714031,0.3362812883555889,-0.8280728718966245
1682095595407368000,19.673367919921876,-0.3260767052054405,0.25849837597310543,-0.7694125931352377
1682095595427496000,19.693495849609373,-0.13992107812119647,0.08367080137729645,-0.35001170754432676
1682095595447624000,19.7136240234375,-0.2896200384130701,-0.17522855661213396,0.0528203205615282
1682095595467753000,19.7337529296875,-0.7853004826188087,-0.34071021071374413,0.021551322072744367
1682095595487881000,19.753880859375,-1.318016197222471,-0.35763621107339855,-0.5320505286931991
1682095595508009000,19.774009033203125,-1.2154197461009024,-0.4482639919817447,-0.691633772405982
1682095595528137000,19.794136962890626,-0.1508294256265275,-0.21507190670073031,-0.5160860668420791
1682095595548265000,19.814264892578127,0.6163163733541965,-0.14565350255966186,-0.45915305026471614
1682095595568393000,19.83439306640625,0.5610603500783443,0.2403863806992769,-0.9905015681684016
1682095595588522000,19.85452197265625,-0.5763835914164781,0.420890831887722,-1.3470967457562684
1682095595608650000,19.87464990234375,-1.2157459093153475,0.1307329968035221,-0.7775070522636175
1682095595628778000,19.894778076171875,-0.3161526925623417,-0.19749299539029597,-0.2938169421136379
1682095595648906000,19.914906005859375,0.12006431240611709,-0.6026975978463888,0.32863223490715027
1682095595669034000,19.935033935546876,0.30552550008594986,-0.704476302844286,0.5610924987822771
1682095595689162000,19.955161865234373,0.17423781027542426,-0.5336836828529834,0.21508768879175186
1682095595709291000,19.975291015625,-0.004832233328884467,-0.4112099803507328,0.46170448831319805
1682095595729419000,19.9954189453125,0.4033440692812204,-0.12391747156977653,0.7542226227879524
1682095595749547000,20.015547119140624,0.8213947093069552,-0.1641957059442997,1.2001041035473345
1682095595769675000,20.035675048828125,0.9652122286111116,-0.18396598981916903,1.177768353098631
1682095595789802800,20.055802734375,0.2600128721892834,-0.03589139759242534,0.78266838054955
1682095595809930800,20.0759306640625,-0.5773498061001301,0.2744569926053285,0.3975070336908102
1682095595830058800,20.096058837890624,-0.32015725202858447,0.7046504903674126,0.5018868610978127
1682095595850188000,20.11618798828125,0.2948714561352506,0.8248159159272909,0.6393161406695842
1682095595870315800,20.136315673828125,0.4734089546322822,0.863585499304533,0.8596785549938678
1682095595890443800,20.15644384765625,0.10484572788570076,0.9139367994040251,0.653229515209794
1682095595910571800,20.17657177734375,-0.6847662247240544,0.8694131825447082,-0.01773848578631878
1682095595930699300,20.19669921875,-0.713517687433958,0.5810667807966471,-0.5049696295440197
1682095595950827300,20.2168271484375,0.48014553287830203,0.06816051303446292,-0.5740946036964655
1682095595970956300,20.236956298828126,1.243863750296831,-0.26895488805770873,0.04679156179130077
1682095595991084300,20.257084228515627,1.2566530892431735,-0.36541035220623014,0.45574762573540206
1682095596011212300,20.27721240234375,0.8436345981657505,-0.43390988793671126,0.6356605407714844
1682095596031340300,20.29734033203125,0.5372948590874672,-0.4197580284655094,0.6629846010267734
1682095596051468300,20.31746826171875,0.7543606430191546,-0.21488252160847185,0.8819698817789554
1682095596071596300,20.33759619140625,0.8629775234740227,0.023189736929535864,1.0604665002763272
1682095596091725300,20.357725341796876,0.42237551748752594,0.06324819107353687,1.136836623251438
1682095596111853300,20.377853271484376,-0.05501987643241882,-0.1803723492413759,0.8380752104729413
1682095596131981300,20.397981201171874,-0.0359802083870396,-0.42474926088154313,0.7089853047013283
1682095596152109300,20.418109375,0.3140542589783668,-0.3459247304916382,0.6506383296728134
1682095596172237300,20.4382373046875,0.37899456785731017,-0.23000585646033286,0.5584709181070328
1682095596192365300,20.458365234375,0.10487725553512572,-0.09279752616286277,0.20470833359658716
1682095596212494300,20.478494384765625,-0.32563016701433806,-0.3053822922229767,-0.16705401798486708
1682095596232622300,20.498622314453126,-0.08807166668474674,-0.3351169207513332,-0.23748189142942427
1682095596252750300,20.518750244140627,0.34134551294259724,-0.3267518279880285,-0.2532037766963243
1682095596272878300,20.53887841796875,0.34427696328461166,-0.26873919948041436,-0.15123451756238937
1682095596293006300,20.55900634765625,0.021582886254787444,-0.2381125905483961,-0.1566319926917553
1682095596313134300,20.57913427734375,-0.17319960806779564,-0.09016191696226596,-0.5024561854183673
1682095596333263400,20.599263427734375,-0.037922611159086225,-0.16469079598486422,-0.16102584373652934
1682095596353391400,20.619391357421875,0.38812311927378174,-0.10889701257050037,0.027917934495210645
1682095596373519400,20.639519287109376,0.5862227753203362,0.03995616281330585,-0.07626373999118805
1682095596393647400,20.6596474609375,0.4868249375769868,0.3243681477218866,-0.23349603666365146
1682095596413775400,20.679775390625,0.30978783370554447,0.6736357589006423,-0.3684709088206291
1682095596433903400,20.6999033203125,0.39799752062149346,1.2437883469730615,-0.3949053267598152
1682095596454032400,20.720032470703124,0.06331139250285923,1.5656705230981112,-0.2904974423021078
1682095596474160400,20.740160400390625,-0.29601934752874076,1.3679028024196624,-0.36587270902097224
1682095596494288400,20.760288330078126,-0.38141339250206946,0.8202005310863256,-0.2343658052355051
1682095596514416400,20.78041650390625,-0.23775303652100263,0.23908991114795206,0.13202420565783976
1682095596534544400,20.80054443359375,0.1574819605845958,-0.22073826189935206,0.5731733971983194
1682095596554672400,20.82067236328125,0.509657495099306,-0.3764695063591003,0.6917360637366772
1682095596574801400,20.840801513671874,0.5927098723173141,-0.4160995059579611,0.523966006436944
1682095596594929400,20.860929443359375,0.44072723980136214,-0.41148061398565766,0.2541553783327341
1682095596615057400,20.881057373046875,-0.08567446934990584,-0.5249146854639053,0.02966974659860134
1682095596635185400,20.901185302734376,-0.1711059967894107,-0.44442017603516576,0.5724789851933717
1682095596655313400,20.9213134765625,0.12009827860780059,-0.07882394586801529,0.5674953515619039
1682095596675441400,20.94144140625,-0.010541121628135442,-0.04269815499782562,0.6699374889045954
1682095596695570400,20.9615703125,-0.09691723644137382,0.03665536770224571,0.5896382097870111
1682095596715698400,20.981698486328124,-0.19505371247939765,0.23070377559661864,0.5283154338181019
1682095596735826400,21.001826416015625,-0.006900280907750129,0.45336511451303957,0.6976286289066076
1682095596755954400,21.021954345703126,0.37094869711101053,0.8350362811684608,0.5040332254767418
1682095596776082400,21.04208251953125,-0.07139635315053165,0.6554027675956487,0.21602467738091943
1682095596796210200,21.062210205078124,-0.5145908598482608,0.3768663967221975,-0.016655366724729538
1682095596816339500,21.08233935546875,-0.8163420290272683,0.2311193706601858,-0.29494331579506394
1682095596836467500,21.102467529296874,-1.0508194779437035,-0.03550619766712188,-0.03350888637006283
1682095596856595500,21.122595458984375,-0.547015458112955,0.0013613514810800551,0.2279039157450199
1682095596876723200,21.14272314453125,-0.16341420017778874,-0.11497136404812336,0.37188100952506065
1682095596896851200,21.162851318359376,0.11246266916282474,-0.2949514991015196,0.6005781214743853
1682095596916979200,21.182979248046873,0.28174415393881497,-0.35899113281369205,0.6029910278350115
1682095596937108700,21.203108642578126,0.30091764096431434,-0.11661270151436329,0.7328758833765984
1682095596957236700,21.22323681640625,0.2000362501323223,0.2957254060834646,0.5261550409138203
1682095596977364700,21.24336474609375,-0.16426351048350332,0.32513328687548637,0.4971598325759172
1682095596997492700,21.26349267578125,-0.21884199982397257,0.2905021184772253,0.3625789281725883
1682095597017620700,21.283620849609374,-0.3071229984104633,-0.014354688566923141,0.4516659093797207
1682095597037748700,21.303748779296875,-0.07578326299786567,-0.16193243718743322,0.505358921122551
1682095597057877800,21.323877685546876,0.0952455038368702,-0.1661035853922367,0.13225041562914847
1682095597078005800,21.344005859375,0.010025646386668086,0.0033551556468009946,-0.14131401205062866
1682095597098133800,21.3641337890625,-0.10541260452084243,0.09753273799121379,-0.14144202234447
1682095597118261800,21.38426171875,-0.11944054535143077,-0.020242577561736107,-0.07052665764391422
1682095597138389800,21.4043896484375,0.04173486292362213,-0.30766718828976153,-0.004095744881033897
1682095597158517800,21.424517822265624,0.23479776691198348,-0.29335400077700613,-0.03361702291965484
1682095597178646800,21.444646728515625,0.22174079000540076,-0.09271101692318916,-0.0066822542428970335
1682095597198774800,21.46477490234375,0.005913023436069489,0.10223054041862487,-0.013020225092768668
1682095597218902800,21.48490283203125,-0.3411819198787212,0.09537760578393936,-0.08397183015048504
1682095597239030800,21.50503076171875,-0.2925023523837328,-0.031875147688388825,0.002927285623550415
1682095597259158800,21.52515869140625,0.10267316961959004,-0.26280162612497804,0.12208499544560908
1682095597279286800,21.545286865234374,0.2996125131824985,-0.39968320868611334,0.027881694138050077
1682095597299415800,21.565415771484375,0.1602349856197834,-0.22680676815807818,-0.4900035310804844
1682095597319543800,21.585543701171876,-0.40868959502764046,-0.227955938193202,-0.7061334224015474
1682095597339671800,21.605671875,-0.6519312920928001,-0.4303840518981218,-0.9226414993852377
1682095597359799800,21.6257998046875,-0.42670156399309633,-0.427513464897871,-0.9384522319793701
1682095597379927800,21.645927734375,-0.16357841429617254,-0.350624871006608,-1.0988199040681124
1682095597400056800,21.666056884765624,-0.1594195410510525,-0.15083412006795405,-1.2162269708305598
1682095597420184800,21.686184814453124,-0.31760519292559475,0.1377870069682598,-1.2829150732249022
1682095597440312800,21.706312744140625,-0.7127724220246077,0.0031470658540725706,-1.2027502341419458
1682095597460440800,21.72644091796875,-0.5419722032487392,-0.06259878725409507,-0.782992790198326
1682095597480568800,21.74656884765625,-0.5286684850394725,-0.20836627158224583,-0.8555909934192896
1682095597500696600,21.766696533203124,-0.8986497984230518,-0.36384850971698757,-1.053275127467513
1682095597520825900,21.786825927734377,-1.1238777729570866,-0.4930909757018089,-1.2983353451967239
1682095597540953900,21.806953857421874,-1.029033835658431,-0.6257388662159442,-1.2124380999416111
1682095597561081900,21.827081787109375,-0.46608372631073,-0.8714017260134219,-0.8495026134163141
1682095597581209600,21.847209716796876,0.28439739012764764,-0.7016080539315939,-0.6270388428986072
1682095597601337600,21.867337646484376,0.7524234644114971,-0.4920616326540708,-0.7779115414112806
1682095597621465600,21.887465576171873,0.9479413603365421,-0.5760603508114814,-0.9450105675816536
1682095597641595000,21.907594970703126,0.888307852628827,-0.5191939697295427,-0.8686831147044897
1682095597661722600,21.92772265625,0.4998176536083221,-0.31088147416114803,-0.3141448598712683
1682095597681850600,21.9478505859375,0.07566113445553928,0.043804654935002324,-0.10459376241862774
1682095597701978600,21.967978515625,-0.012594090368878095,0.38340135144889353,-0.14630232185721395
1682095597722106600,21.988106689453126,-0.0912666633337736,0.4540642026931047,-0.15086860685944556
1682095597742235600,22.008235595703123,0.019336002377141268,0.3568412613034248,0.09692600426971912
1682095597762363600,22.02836376953125,0.25902738654958085,0.1313081663429737,0.6721990040957927
1682095597782491600,22.04849169921875,0.6150953071266413,0.12554945668578146,0.8795482075899839
1682095597802619600,22.06861962890625,0.8266431313544511,0.43987902547419067,0.7874626290887594
1682095597822747600,22.08874755859375,0.7058066746652126,0.5973135667204856,0.5811468602955341
1682095597842875600,22.108875732421875,0.42115035960674285,0.8970534691423178,0.6755588359177113
1682095597863004700,22.129004638671876,0.32836280684862285,1.1650672769576311,0.9022457770884037
1682095597883132700,22.149132568359374,0.06133501439597457,1.281100717279315,1.184775016990304
1682095597903260700,22.1692607421875,-0.08654664907455444,1.2401567124724386,1.120316865605116
1682095597923388700,22.189388671875,0.01823649843633175,0.8238684059441089,1.160606205895543
1682095597943517400,22.209517333984376,-0.01026654247045517,0.5489519791334867,1.1970201660573483
1682095597963645400,22.2296455078125,-0.1302010453512892,0.37676761252284047,1.4574790284484624
1682095597983774500,22.2497744140625,0.14341354161314665,0.3849877438575029,1.600760541179776
1682095598003902500,22.26990234375,0.5435568420916795,0.3195014184683561,1.5875556071698664
1682095598024030500,22.290030517578124,0.9426969568770378,0.325258959081769,1.645037489801645
1682095598044158500,22.310158447265625,0.9329449397999793,0.3686678926974535,1.767975302684307
1682095598064286500,22.330286376953126,0.7011918012809008,0.40034138033390043,1.9178630818128584
1682095598084414500,22.35041455078125,0.4526625922668725,0.3634422670036554,1.7792098134040832
1682095598104543500,22.37054345703125,0.4798837036043405,0.19769348639845846,1.3110960425704716
1682095598124671500,22.39067138671875,0.7183049217104911,0.0028472061246633527,0.8066606660336255
1682095598144799500,22.410799560546874,0.4625859473228454,0.07887947544753551,0.8546154263854027
1682095598164927500,22.430927490234374,0.10555931951515377,0.17590484843850135,0.9253080882459879
1682095598185055500,22.451055419921875,-0.03367777666356414,0.19176935704648493,0.5595224729865789
1682095598205183500,22.47118359375,0.07989420544803143,-0.012508768439292908,0.14535422735214232
1682095598225312500,22.4913125,0.4475215761166066,-0.2663438287764788,-0.3079045041769743
1682095598245440500,22.5114404296875,0.6625543929159641,-0.4415460819035768,-0.390204017201066
1682095598265568500,22.531568603515623,0.8708592896997928,-0.40639994972050186,-0.21662907301485537
1682095598285696500,22.551696533203124,0.7398281867325306,-0.32524317699074745,-0.1896849519878626
1682095598305824500,22.571824462890625,0.4965980339746922,-0.1916045218735933,-0.4076227695137262
1682095598325952300,22.5919521484375,0.33638420074079184,0.02509352472424507,-0.5773918916761874
1682095598346081500,22.61208154296875,0.09286127558145671,0.14516659582555294,-0.3565110064357519
1682095598366209500,22.63220947265625,-0.22523506186194717,0.17690788800120352,-0.28831600660979745
1682095598386337500,22.652337646484376,-0.2422562296917662,0.1344102240115404,-0.33309447501301764
1682095598406465300,22.67246533203125,-0.011788637471199036,-0.10555004023015499,-0.42810383200645447
1682095598426593300,22.69259326171875,0.25467969446778294,-0.050990182524919506,-0.296049231210351
1682095598446721300,22.71272119140625,0.23635493322610854,0.27667817578613757,-0.3921206644773483
1682095598466850600,22.7328505859375,-0.10865841804165392,0.5191144747525454,-0.39876784740686416
1682095598486978300,22.752978271484373,-0.1933271809477359,0.580686257046461,-0.2590723764687776
1682095598507106300,22.773106201171874,-0.09687398182153702,0.15742752698361873,-0.19938100109398363
1682095598527234300,22.793234375,0.09328797656092792,-0.19059739065766335,-0.2652268074452877
1682095598547362300,22.8133623046875,0.23259061225652694,-0.3657254095047712,-0.36418577884733677
1682095598567491300,22.8334912109375,0.13160166939683257,-0.5102928703933954,-0.17592998287975786
1682095598587619300,22.853619384765626,0.16964816266391425,-0.518920998007059,0.137988082498312
1682095598607747300,22.873747314453126,0.40003976703882216,-0.3003232552677393,0.13769874416291714
1682095598627875300,22.893875244140624,0.3281377659210935,-0.16082418368458748,0.2844382883936167
1682095598648003300,22.91400341796875,0.016262568014860153,-0.035892566636204715,-0.0754945091843605
1682095598668131300,22.93413134765625,-0.3374409797847271,-0.22090835776925086,-0.1261585284948349
1682095598688260400,22.95426025390625,-0.05467734660506248,-0.10778992811143398,0.1524485695272684
1682095598708388400,22.974388427734375,0.05552658384554088,-0.04857143094539642,0.2275111170351505
1682095598728516400,22.994516357421876,-0.18476736932992935,-0.15570494097471235,-0.029219080221652982
1682095598748644400,23.014644287109373,-0.3097556850016117,-0.138174544981122,-0.21416823585927486
1682095598768772400,23.0347724609375,0.07313070266246795,0.2570557759493589,-0.1129085862994194
1682095598788900400,23.054900390625,0.13213000411987305,0.5826730469495057,0.06196516552567482
1682095598809029400,23.075029296875,-0.14914364623036236,0.5746949076771736,-0.10781389350891113
1682095598829157400,23.095157470703125,-0.38637123410515484,0.5605564922094345,-0.3769412155240774
1682095598849285400,23.115285400390626,-0.44101237688567485,0.5854787520200013,-0.16732172901034353
1682095598869413400,23.135413330078126,-0.7330045512575656,0.3438765657901764,0.06891746888160705
1682095598889541400,23.155541259765624,-0.6908171222608536,0.07522212198376656,0.06457739385068416
1682095598909669400,23.17566943359375,-0.44984921534657474,-0.15311317091584203,0.1328115566432476
1682095598929798000,23.1957978515625,-0.1347510733384639,-0.2447217795550823,0.4631733918219805
1682095598949926000,23.21592578125,0.3201356247186661,-0.14326222350895404,0.6576169365137815
1682095598970054000,23.236053955078123,0.451359656442143,-0.053334699824452395,0.5743038625329733
1682095598990182000,23.256181884765624,0.19137882335893808,-0.1080985556691885,0.436581152972579
1682095599010310000,23.276309814453125,-0.10829542994815855,-0.3118003425717354,0.24564473961889743
1682095599030437600,23.296437744140626,0.08702950068805367,-0.30151100374758244,0.2668038475036621
1682095599050567000,23.31656689453125,0.43630226296596225,-0.2277776590168476,0.5577525407046079
1682095599070695000,23.33669482421875,0.41235790827684105,-0.1584574545532465,0.6792576904356479
1682095599090823000,23.356822998046876,0.10333287563733756,-0.014918752190470695,0.4310463151991367
1682095599110950700,23.37695068359375,-0.35382571287453174,-0.17784370754659176,0.07865911069512367
1682095599131078700,23.39707861328125,-0.33532501054406166,-0.41773616724908347,0.10182546674907207
1682095599151206700,23.41720654296875,0.3008826427161693,-0.18789806857109068,0.3642231882482767
1682095599171336000,23.4373359375,0.4587584249239415,-0.03698503804802895,0.43836394473612306
1682095599191463700,23.457463623046873,0.055032662848755715,-0.013065817800164222,0.1847603550672531
1682095599211591700,23.477591796875,-0.5128239232409745,-0.07883972795903682,-0.40843174780905245
1682095599231719700,23.4977197265625,-0.5696242533493787,-0.12564181114435194,-0.41089843018352984
1682095599251847700,23.51784765625,-0.20186178505904973,-0.08098258520662784,-0.2056441531419754
1682095599271976700,23.537976806640625,0.08110946298930793,0.09482990877330302,-0.04521919790804386
1682095599292104700,23.558104736328126,-0.18312486281991003,0.04136719865500927,-0.17998305766284464
1682095599312232700,23.578232666015627,-0.5272714777231217,-0.05658639509677887,-0.6740887633651494
1682095599332360700,23.598360595703124,-0.3971136504590511,-0.16931377961039543,-0.5897662200808524
1682095599352488700,23.61848876953125,0.035534291250444945,-0.3150619747161865,-0.24101941790580747
1682095599372616700,23.63861669921875,0.16519235229883342,-0.5626286223083734,-0.13288403735756874
1682095599392745700,23.658745849609375,0.3558429344484582,-0.4902998836785555,-0.27454876254200933
1682095599412873700,23.678873779296875,0.4614554819881916,-0.19100480241477488,-0.5414543168544769
1682095599433001700,23.699001708984376,0.4456600200284272,0.02966448590159416,-0.5994114157825708
1682095599453129700,23.719129638671873,0.44563134192321446,0.3187731041938066,-0.5188122769355774
1682095599473257700,23.7392578125,0.2777051442136988,0.7540665554434061,-0.3366290788799524
1682095599493385700,23.7593857421875,-0.07516189796281977,1.2629583268672226,-0.18615151716470718
1682095599513514800,23.7795146484375,-0.8191039680212736,1.4527403094887732,0.021835399711132047
1682095599533642800,23.799642822265625,-1.6221090341567992,1.1136831266790628,0.13836334555149077
1682095599553770800,23.819770751953126,-1.6436042421281336,0.481854126894474,0.43961423705816266
1682095599573898800,23.839898681640626,-0.8564531632065773,-0.2373720013141632,0.44616731196343895
1682095599594026800,23.86002685546875,-0.03144263802263886,-0.7248585811376571,0.1575380016207695
1682095599614154800,23.88015478515625,0.6312970848649739,-0.847583628052473,0.12871347367465497
1682095599634283800,23.90028369140625,0.8611521346777677,-0.8304004380613565,0.0812193165719509
1682095599654411800,23.920411865234374,0.8973281944304704,-0.6810019037544727,-0.06062427231073379
1682095599674539800,23.940539794921875,0.9251122734129429,-0.4478378755241632,-0.18456044858098028
1682095599694667800,23.960667724609376,0.6965607074141502,-0.5312643467515706,-0.21147885064482688
1682095599714795800,23.980795654296877,0.49756377373430877,-0.46538113099932665,-0.06466098048090935
1682095599734923800,24.000923828125,0.2905488802284002,-0.29749709193110463,0.2418728198647499
1682095599755052800,24.021052734375,-0.019971907394193113,-0.052929041633009904,0.42251346465349193
1682095599775180800,24.041180908203124,-0.06413664607955143,0.13619009316563604,0.25911212395727634
1682095599795308800,24.061308837890625,0.25839844099627807,0.4923030401945114,0.13689678013026713
1682095599815436800,24.081436767578126,0.29537410842776296,0.7870429423719644,0.27628245446681976
1682095599835564800,24.101564697265626,-0.09716273563504219,0.8076596139430999,0.46529111462831496
1682095599855692800,24.12169287109375,-0.39876434027552604,0.7887824795156717,0.41969373105764385
1682095599875821800,24.14182177734375,-0.3795107737511396,0.5260919125497341,0.5260562567144632
1682095599895949800,24.16194970703125,0.031090719312429425,0.3209925338089466,0.488583142888546
1682095599916077800,24.182077880859374,0.46472938909232614,0.13960954622030258,0.5235077412754296
1682095599936205800,24.202205810546875,0.5564157391428947,0.0320721315652132,0.6160322957158089
1682095599956333800,24.222333740234376,0.6609516338944434,-0.1888391488134861,0.9164251090884208
1682095599976461800,24.2424619140625,0.8735153571665286,-0.42651276342272754,1.2111369542151689
1682095599996590800,24.2625908203125,1.1200549997985363,-0.4677373387366533,1.3458072904676197
1682095600016718800,24.28271875,1.1672107187271117,-0.15618483344614506,0.9128390672951936
1682095600036846800,24.302846923828124,0.5918874865511432,0.20850421874821184,0.4839788639634847
1682095600056974800,24.322974853515625,0.1735842965364456,0.6318693317949772,0.6313730727106333
1682095600077102800,24.343102783203125,-0.0704792748382315,0.6699860042214393,0.5435796384453773
1682095600097232000,24.36323193359375,-0.2009644708931446,0.3133861504584551,0.3520972816467285
1682095600117359900,24.38335986328125,-0.26235391889009624,-0.117465518951416,0.062439212778210636
1682095600137488000,24.40348779296875,-0.11223057744000106,-0.1718330689549446,-0.09827157365977764
1682095600157615900,24.423615966796874,0.14367840309441088,-0.14302783023118973,0.1826999154061079
1682095600177744000,24.443743896484374,0.5238999919960275,-0.033552140989899636,0.3286386646479368
1682095600197871900,24.463871826171875,0.6436579692661761,-0.37222003222107886,0.3090262016832828
1682095600218001000,24.4840009765625,0.7089712761759758,-0.6019032325983047,0.07768997340202331
1682095600238129000,24.50412890625,0.6784113027393818,-0.5661550428688525,-0.15994097110927105
1682095600258257000,24.5242568359375,0.5236053929636254,-0.46923137668669224,-0.23497195443511007
1682095600278385000,24.544385009765627,0.39654900231361384,-0.3759288236111402,-0.38151393026709557
1682095600298513000,24.564512939453124,0.27822251915130763,-0.5680810424953698,-0.4771750291675329
1682095600318641000,24.584640869140625,0.3421586924890056,-0.7491355287820101,-0.5938882684469222
1682095600338770000,24.60477001953125,0.32182372393608094,-0.6704384241640567,-0.758074622040987
1682095600358898000,24.62489794921875,0.017950703764893113,-0.3487678449630737,-0.8814140014618634
1682095600379026000,24.64502587890625,-0.27848259485960003,-0.1307248134970665,-0.7530980026721954
1682095600399154000,24.66515380859375,-0.36569501436650753,-0.30801380977034565,-0.735937024512887
1682095600419282000,24.685281982421873,0.11697861221730708,-0.3800520410209894,-0.5438268912047147
1682095600439410000,24.705409912109374,0.608648651737906,0.0015904840618371963,-0.21894494874179363
1682095600459539000,24.7255390625,0.520443129540421,0.5358218639254569,-0.12335633055567741
1682095600479667000,24.7456669921875,-0.03546637711338699,0.8832312800168991,-0.3453951536595821
1682095600499795000,24.765794921875,-0.519657459055446,0.9818670108139514,-0.8057610868453979
1682095600519923000,24.7859228515625,-0.6664391253948211,0.7325345225930213,-0.8750368676453828
1682095600540051000,24.806051025390627,-0.426737840882875,0.3537871344298124,-0.854911194461584
