time,seconds_elapsed,z,y,x
1682095737159642400,0.035642333984375,0.4655412899971008,-0.20722879198491573,0.44273032325208184
1682095737179771400,0.055771484375,0.8626280524492264,-0.59435880856812,0.5788444285720586
1682095737199899400,0.0758994140625,1.159822946563363,-0.4741986437052488,0.67358432097435
1682095737220028400,0.0960283203125,1.1487275520533322,-0.3595043430328369,1.0011135630756616
1682095737240156400,0.116156494140625,0.8093114728033542,-0.34568975269198415,0.8554553843408822
1682095737260285400,0.136285400390625,0.7267617844104767,-0.24694588534533976,-0.06457797837257385
1682095737280413400,0.156413330078125,0.4876525840401649,-0.4306751437991857,0.047600540086627
1682095737300541400,0.17654150390625,-0.7452595641314983,0.21438217087090014,-0.1596469565987587
1682095737320670500,0.19667041015625,-1.404988962754607,0.35434243022501466,0.14239070137143134
1682095737340798500,0.216798583984375,-1.5917495517283677,-0.21439503035247326,0.005010521638393402
1682095737360927200,0.23692724609375,-1.7289926610782742,-0.30607378161847587,-0.44861762772500513
1682095737381055200,0.25705517578125,-1.8103765205621718,-1.0500590880304574,-0.4495511091828346
1682095737401184300,0.277184326171875,-1.4571265617489815,-1.2211211726129054,-0.8186416112065314
1682095737421312300,0.297312255859375,-0.8362085398182273,-0.5501356359601021,-0.7071358774423598
1682095737441441300,0.317441162109375,-0.44422932963818307,-0.7665221323907375,-0.1370206987708807
1682095737461569300,0.3375693359375,-0.11674568024426699,-1.134005783739686,-0.3490735499113798
1682095737481698600,0.357698486328125,0.3089008217379451,-1.186425706806779,-0.7130541615754366
1682095737501826600,0.37782666015625,0.20111527754068373,-1.2833353444635867,-0.7593424500197171
1682095737521954300,0.397954345703125,-0.5165419939160346,-0.8245289156794547,-1.0717056871712207
1682095737542083600,0.41808349609375,-0.9071341336518526,-0.7959002025663853,-0.9341483973056077
1682095737562211600,0.438211669921875,-0.898503960211575,-0.8732043915212154,-1.1509674399346113
1682095737582340400,0.45834033203125,-0.46863808696866033,-0.9798790518671273,-1.5135107122719287
1682095737602468600,0.478468505859375,-0.19726678541898726,-0.9594283845126629,-1.2828677269518374
1682095737622597400,0.498597412109375,-0.18748013541996478,-0.680561174249649,-0.9713871178537606
1682095737642725400,0.518725341796875,-0.6486895336925983,-0.06464578291177749,-0.6263432618498802
1682095737662854400,0.5388544921875,-0.7110925061136484,-0.051907881891727445,-0.6141647482782602
1682095737682982400,0.558982421875,-0.3198787273481488,0.2460644263356924,-0.9250731104463338
1682095737703110400,0.5791103515625,0.17535656690597534,0.04015314669013023,-0.551689295142889
1682095737723239400,0.599239501953125,0.2993935732021928,0.08738309989869594,-0.41114626746475696
1682095737743367400,0.619367431640625,-0.018752046743035315,0.05677928732037544,-0.4150251547247171
1682095737763496400,0.639496337890625,-0.4178174157917499,0.0935679260134697,-0.23548750274181365
1682095737783624400,0.65962451171875,0.016347323688864705,0.2208195104420185,0.18370295496881006
1682095737803753500,0.67975341796875,0.11240005225539207,-0.15827566824555397,0.21875497912764547
1682095737823881500,0.699881591796875,-0.05540361505299806,-0.07345452778935432,0.03974105875790119
1682095737844010200,0.72001025390625,-0.5007730546370148,-0.07615501891970634,0.45326457674801346
1682095737864138200,0.74013818359375,-0.47170858045518393,0.21384148812294004,0.4123381075978279
1682095737884267300,0.760267333984375,-0.29253333204388615,0.31764848407804963,0.5197743999660015
1682095737904395300,0.780395263671875,-0.07042348953038453,0.12255670461058615,0.8473258538991212
1682095737924523300,0.800523193359375,-0.035440438954532145,0.0014858546435832975,0.6808364840596914
1682095737944652300,0.82065234375,-0.21267302886545658,0.11446166096031665,0.16250293055176734
1682095737964780300,0.8407802734375,-0.25115239712446924,0.38826749618053435,-0.26720658308565615
1682095737984909300,0.860909423828125,-0.15774638367444277,0.435115172073245,-0.05310498272180557
1682095738005037300,0.881037353515625,-0.03666939622759819,0.6754840171158313,-0.025024551141262053
1682095738025166600,0.90116650390625,-0.41007571562379597,0.41933717270493504,0.06709492962956429
1682095738045294600,0.921294677734375,-0.44150516537129875,0.3205038735091686,0.09808394213318825
1682095738065423600,0.941423583984375,-0.28386107302755115,0.3172714674592018,0.4097761481553316
1682095738085551600,0.961551513671875,-0.26674013461768625,0.3591793488621712,0.6858598651796579
1682095738105680400,0.981680419921875,0.005540390731394291,0.19426935716867447,0.8089414704471826
1682095738125808400,1.001808349609375,0.5501987643241882,0.1360305186897516,0.9150859694391489
1682095738145936400,1.021936279296875,0.8236699607625603,0.11565174752771853,0.8207277698308229
1682095738166065400,1.0420654296875,0.8341483924180269,-0.04556991104185581,0.7890589583694935
1682095738186193400,1.062193359375,0.7684487165391445,0.31798809129595756,0.5832113916099071
1682095738206322400,1.082322509765625,0.4110527439624071,0.6300035379230976,0.459022701883316
1682095738226450400,1.102450439453125,0.35048692384064195,0.5506675508797169,0.4678291086733341
1682095738246579500,1.122579345703125,0.45919659714549776,0.3026449762135744,0.22493571358919143
1682095738266707500,1.14270751953125,0.4082674971580505,0.04738485150933265,0.27818098156452176
1682095738286836500,1.16283642578125,0.43847617293894287,0.07328150931000708,0.1650052687615156
1682095738306964500,1.182964599609375,0.1886129388421774,0.12319441799223423,-0.13968904119729994
1682095738327092500,1.203092529296875,0.12663345253020525,-0.14110592225790022,0.09768120655119418
1682095738347221200,1.22322119140625,0.22626637767106295,-0.0852104320347309,-0.02969195843040943
1682095738367349500,1.243349609375,0.3088721801653504,-0.18891455213725566,-0.16769933015108107
1682095738387478300,1.263478271484375,0.5474050419524311,-0.11169219624698161,-0.03515957618653774
1682095738407606300,1.283606201171875,0.5006280932083725,0.21021336075365543,0.018612346011400223
1682095738427735300,1.3037353515625,0.2955950577020645,-0.008571428990364074,0.16572247712016105
1682095738447863300,1.32386328125,0.05401771365255117,-0.4880903909355402,-0.17415011372566222
1682095738467992300,1.343992431640625,0.07973872262537479,-0.6038438452720641,-0.5895207208871841
1682095738488120300,1.364120361328125,0.34237580583840604,-0.592383709102869,-0.34886955177187917
1682095738508248300,1.384248291015625,0.01081248591542244,-0.16773030981123446,-0.29868250232338905
1682095738528377300,1.40437744140625,-0.44817748274207114,0.2561252171009779,-0.13795476475059984
1682095738548505300,1.42450537109375,-0.5720619288250803,0.4413029207974672,-0.3179115189284086
1682095738568634600,1.444634521484375,-0.6570704085469246,0.7255576693177223,-0.3702233054459095
1682095738588762600,1.4647626953125,-1.0501540728375316,1.5870190160751343,-0.26680209393799303
1682095738608891400,1.484891357421875,-1.4050724032543598,2.1872002471864223,0.030212767434120175
1682095738629019400,1.505019287109375,-1.2823971868306399,1.4550883339196443,0.5652466958522796
1682095738649148400,1.5251484375,-0.28025062744542956,0.28178105188310143,0.9983119496583938
1682095738669276400,1.5452763671875,0.5507368167236447,-0.10999591372311114,1.8118617906838654
1682095738689404400,1.565404296875,0.6073822485312819,0.059258244654536246,1.6792951487123966
1682095738709533400,1.585533447265625,0.30729733206406235,-0.1838414866566658,0.8201385717660188
1682095738729661400,1.605661376953125,0.5498623719766735,0.04655424590408802,-0.02119534824192524
1682095738749790500,1.62579052734375,1.0125774986371396,0.36725276520252226,-0.22890111008882522
1682095738769918500,1.64591845703125,1.0864110888719558,0.37956104263365265,-0.16549217549562453
1682095738790047500,1.666047607421875,0.946074689681828,0.020140286231040954,-0.11322481264173984
1682095738810175500,1.686175537109375,0.530683624254167,-0.2551753690302372,-0.14311375494897366
1682095738830304500,1.706304443359375,-0.0006591945610940456,-0.32107261330783365,-0.17088029827475545
1682095738850432500,1.7264326171875,-0.4404164933517575,-0.4423550601989031,-0.16048106933534145
1682095738870560500,1.746560546875,-0.32418387719616293,-0.3977981255918741,0.21195055980980396
1682095738890689300,1.766689208984375,-0.11382453210055828,-0.18890286169946194,0.4230477176606655
1682095738910817300,1.7868173828125,0.015664602121710777,0.10333704035580157,0.4495604615330696
1682095738930946300,1.8069462890625,0.28450521614998575,0.10006079516410828,0.30888591642975805
1682095738951074300,1.82707421875,0.320534853169322,-0.034765023910999296,-0.28928806651234623
1682095738971203300,1.847203369140625,0.29603578720688817,-0.5241653284013271,-0.7008838313102722
1682095738991331300,1.867331298828125,0.29234160886406896,-0.7789882307320832,-0.6341396148145199
1682095739011460400,1.88746044921875,0.3191328774169087,-0.9449567915678023,-0.5982885492324829
1682095739031588400,1.90758837890625,0.3274342572942376,-0.7125643322318792,-0.5370318242371082
1682095739051716400,1.92771630859375,0.41397243080139157,-0.8016296861290931,-0.3757727562665939
1682095739071845400,1.947845458984375,0.11502484780102967,-0.700968002462387,-0.647875294700265
1682095739091973000,1.96797314453125,-0.13375263688564298,-0.785340814629197,-0.7678875755250454
1682095739112102100,1.98810205078125,-0.10597674120962619,-0.7562666958361863,-0.49957332345843314
1682095739132230100,2.008230224609375,-0.1548619142793119,-0.8183779918342828,-0.5621832166284323
1682095739152359000,2.02835888671875,-0.20035876008495687,-0.907424056509137,-0.6593097119063138
1682095739172487000,2.04848681640625,-0.4208411475270986,-0.8444716335117817,-0.8059633314192295
1682095739192616000,2.068615966796875,-0.6429506977796554,-1.0759726969659327,-0.8471674484670162
1682095739212744000,2.088743896484375,-0.534464019575715,-1.2430191161662338,-0.7567676310956478
1682095739232873000,2.108873046875,-0.3268009278267622,-1.4111340413808822,-0.6529892767131328
1682095739253001000,2.1290009765625,-0.12285817177519201,-1.4501456168204545,-0.7941670951634645
1682095739273129000,2.14912890625,-0.05492489162534475,-1.217338146942854,-0.9432909041821956
1682095739293258000,2.169258056640625,-0.15009806087836622,-1.0596148518830537,-0.8451654609948396
1682095739313386000,2.189385986328125,-0.01910509796440601,-1.062657872840762,-0.6364052216589451
1682095739333515000,2.209514892578125,0.10088380198478698,-1.05730891302824,-0.7050374438583851
1682095739353643000,2.22964306640625,0.038726913279294964,-0.7568208225876093,-0.9296668679773807
1682095739373772000,2.24977197265625,-0.1586599913880229,-0.224278126463294,-1.279205697312951
1682095739393900000,2.269900146484375,-0.37610929474458094,0.09867489376366138,-1.11542266382277
1682095739414028000,2.290028076171875,-0.5439934799432754,0.08109890506267547,-0.41817222057878967
1682095739434157000,2.310156982421875,-0.5481932697206735,-0.08569090902805328,-0.251266671153903
1682095739454285000,2.33028515625,-0.5588073104545473,-0.2284311544895172,-0.5028770411789417
1682095739474414000,2.3504140625,-0.48564913526326414,0.33232232159674163,-0.928081060090661
1682095739494542000,2.3705419921875,-0.38705505165085197,0.6738683986127376,-0.8304203118056058
1682095739514671000,2.390671142578125,-0.42451720569133755,0.39099136818647384,-0.7640180406153202
1682095739534799000,2.410799072265625,-0.4880453827500343,-0.056548985695838924,-0.7776222030758857
1682095739554928000,2.43092822265625,-0.46765126788839695,-0.23579613029956817,-0.6203600957870483
1682095739575056100,2.45105615234375,-0.41307752778828144,-0.3038233723431825,-0.14475918406844138
1682095739595184000,2.47118408203125,-0.31618235704824327,-0.288117269167304,0.014584405669569969
1682095739615313200,2.491313232421875,-0.3246878811955452,-0.21798048762381075,-0.09348726199269294
1682095739635441200,2.511441162109375,-0.14744097049832344,-0.14037234728634357,-0.11947393616437911
1682095739655570000,2.53156982421875,0.24254545842930672,0.1378045426249504,0.26688801865577694
1682095739675698000,2.551697998046875,0.5220606112070382,0.2732347573339939,0.8866735294252633
1682095739695827000,2.571826904296875,0.41106268083453174,0.5009194773703813,0.9936562328070402
1682095739715955000,2.591954833984375,-0.1608750370889902,0.5213537781119346,0.6463520306557416
1682095739736084000,2.612083984375,-0.2961567832380533,0.6058125149965286,0.4006429936289787
1682095739756212000,2.6322119140625,-0.15687164666652678,1.0153864185780286,0.523048307070136
1682095739776340000,2.652340087890625,-0.005156067588925361,1.1322159777134657,0.935522608268261
1682095739796469000,2.672468994140625,-0.06810483732447027,1.291163846132159,0.45266836442053315
1682095739816597000,2.692596923828125,-0.2907639842838049,1.1171282986968756,0.12378478510081767
1682095739836726000,2.71272607421875,-0.4180580926798284,0.9639590136796236,0.09254442818462848
1682095739856854000,2.73285400390625,0.032251579785346984,0.8277168980658054,0.4527244785219431
1682095739876983000,2.752983154296875,0.5886825164973736,0.8138789268493651,0.7897007634043693
1682095739897111000,2.773111083984375,0.770782712444663,0.6607546500176191,1.2625170128405094
1682095739917240000,2.793239990234375,0.6139566584855318,0.48563715256452555,1.377088563916087
1682095739937367800,2.813367919921875,0.018102204532176255,0.46192602210938927,1.1571049197763204
1682095739957495800,2.833495849609375,-0.20391046121716497,0.4889245036721229,1.3379898947149513
1682095739977625000,2.853625,-0.197772689114511,0.6214695183336735,1.2050409754276274
1682095739997753000,2.873753173828125,0.1726505228176713,0.19315116679370403,1.1428098524421453
1682095740017882000,2.893882080078125,0.5310980502739548,-0.019662147325277327,1.0915174721002578
1682095740038010000,2.914010009765625,0.5136266909912228,-0.07356324886083603,0.841371329408884
1682095740058139100,2.93413916015625,0.3376645594075322,-0.2921013703674078,0.9088783469706774
1682095740078267100,2.95426708984375,0.2943549945130944,-0.33965865583419796,0.7816215018451214
1682095740098396000,2.97439599609375,0.5468471158087254,-0.30882395710945126,0.7449170343041419
1682095740118524000,2.99452392578125,0.9060451693713665,-0.26802549825310706,0.7162678629249334
1682095740138652000,3.01465185546875,0.9497815813757479,-0.01055880341529846,0.24101181912124156
1682095740158781000,3.034781005859375,0.5755190835416316,0.21708850722014902,-0.07571545845866202
1682095740178909000,3.054908935546875,0.1540431452423334,0.24865970352590083,-0.1394341896533966
1682095740199037700,3.07503759765625,-0.12432985176295042,0.2621557294368744,-0.3060948244065046
1682095740219165700,3.095165771484375,-0.26930428601726886,0.4511240575879812,-0.2311328146636486
1682095740239294700,3.115294677734375,-0.2666477801591158,0.5823427920818328,-0.2910252655684948
1682095740259422700,3.135422607421875,-0.4057072912812233,0.4744289453297853,-0.3582201484411955
1682095740279551700,3.1555517578125,-0.6688274818360805,0.14527590141892432,-0.2611000829041004
1682095740299679700,3.1756796875,-0.4990332252323627,0.03244914818406105,-0.11900281152129173
1682095740319807700,3.195807861328125,-0.23406126933097837,-0.170856917399168,-0.001003039562702179
1682095740339936800,3.215936767578125,0.06665566142946482,0.05029810860753059,-0.27264380570352076
1682095740360064800,3.236064697265625,0.26002105549573895,0.5292863246768713,-0.6416314318746328
1682095740380193800,3.25619384765625,0.05246434673070907,0.486647206389904,-0.6709019500225782
1682095740400321800,3.27632177734375,-0.2396538286410272,0.44484395440518854,-0.5633060831785202
1682095740420450800,3.296450927734375,-0.3407657402932644,0.1273480305403471,-0.06617547669708729
1682095740440578800,3.316578857421875,-0.20878654282093048,-0.45090252379178997,0.3840571850091219
1682095740460707800,3.336707763671875,0.18589082040190696,-0.5382856236904859,0.4170119446277618
1682095740480835800,3.3568359375,0.41290100217759607,-0.34719372751414773,0.09174830937087536
1682095740500963800,3.3769638671875,0.4462397926777601,-0.1418739840209484,-0.08354746725857258
1682095740521092900,3.3970927734375,0.4904419224977493,0.18762568137049673,0.236935947984457
1682095740541220900,3.417220947265625,0.384193086348474,0.4731096794247627,0.49447103188335895
1682095740561350000,3.437349853515625,0.02179915935397148,0.21096856303513048,0.3741431092381477
1682095740581478000,3.457477783203125,-0.21438918513357638,-0.14751578930020331,0.060087681216001505
1682095740601607000,3.47760693359375,-0.13867124245688317,-0.20013971050679683,0.21542788053154943
1682095740621735000,3.49773486328125,0.01301145726442337,-0.0010153145223855973,0.801741914331913
1682095740641864000,3.517864013671875,0.0419932215988636,0.07855565032064914,1.115066689991951
1682095740661992000,3.537991943359375,-0.09163827312514185,-0.23522446789145468,0.9870978972047567
1682095740682120000,3.558119873046875,0.16821970076337456,-0.33242695101499553,0.3873153100222349
1682095740702248700,3.578248779296875,0.4539408685743809,-0.3677425945460796,0.04841477907896041
1682095740722376700,3.598376708984375,0.618411884328723,-0.2821580685019493,-0.03363923475146294
1682095740742505700,3.618505615234375,0.6440390775382518,-0.13922785342633723,0.0369172335088253
1682095740762633700,3.6386337890625,0.5430940468855202,0.22822423374056816,-0.13608429470360278
1682095740782762800,3.6587626953125,0.20493045191466808,0.7325275083303451,-0.5936486144721508
1682095740802890800,3.678890869140625,-0.18524185497388243,0.6941314344406128,-0.33051965608894823
1682095740823019800,3.699019775390625,-0.512304210215807,0.32945699529349803,0.00006312836408615112
1682095740843147800,3.719147705078125,-0.6405098804987966,-0.07152385198771953,0.27486732697188854
1682095740863275800,3.73927587890625,-0.4247733724094927,-0.4555249228954315,0.3085965780943632
1682095740883404800,3.75940478515625,0.03521349833086133,-0.4626566744714975,0.1541904447585344
1682095740903532800,3.77953271484375,-0.019085662611573934,-0.6736112089812755,-0.19123218142986295
1682095740923661800,3.799661865234375,-0.4113816836558282,-1.0544400795936584,-0.7914537445515394
1682095740943789800,3.819789794921875,-0.08592705587148666,-1.1084463950693606,-1.079322007393837
1682095740963918800,3.8399189453125,0.50334641225636,-1.0071727169841527,-0.9764064073204993
1682095740984046800,3.860046875,0.6498867806531489,-0.7784411182433366,-0.8866133236706256
1682095741004174600,3.880174560546875,0.3866794963367283,-0.6520493655145168,-0.8444745561212301
1682095741024303900,3.900303955078125,-0.028237083446979522,-0.7106693122655153,-0.6353624346077442
1682095741044432000,3.920431884765625,-0.3752110307306051,-0.9402543129652738,-0.3050631432712078
1682095741064561000,3.940560791015625,0.025613164684176442,-0.8622124573856592,-0.519415503525734
1682095741084688100,3.960688232421875,0.04991524676978588,-0.6410393112003803,-0.5719698666274547
1682095741104817400,3.9808173828125,-0.07320318337678909,-0.6629226417064666,-0.6197141990989447
1682095741124945400,4.0009453125,-0.16075857110247016,-0.6602203970104455,-0.8454384327173232
1682095741145074400,4.021074462890625,-0.17747122097238896,-0.6850351047933101,-1.0397674111187458
1682095741165202400,4.041202392578125,-0.0467674502633512,-0.5569973384231328,-1.171608076903224
1682095741185330400,4.061330322265625,-0.16383797854781149,-0.68609835011065,-1.2612766573905945
1682095741205459500,4.08145947265625,-0.3330908217512071,-0.8212877418011426,-1.2095055536210537
1682095741225587500,4.10158740234375,-0.46754795364439483,-0.8700678470611571,-1.2052969960153102
1682095741245716200,4.12171630859375,-0.4060112426638603,-0.7509376097679138,-1.2180723064363002
1682095741265844200,4.14184423828125,-0.37177857206389303,-0.6573796206265687,-1.1079220789343118
1682095741285973200,4.16197314453125,-0.41618075450062747,-0.5945721590578555,-0.9678010760605334
1682095741306101200,4.182101318359375,-0.4875840488485992,-0.354420171636343,-0.9052829528272152
1682095741326230300,4.202230224609375,-0.4854096274189651,-0.2753910585850477,-0.5052963772803545
1682095741346358300,4.222358154296875,-0.43679742607176303,-0.1848310822159052,-0.5413625469177961
1682095741366486300,4.242486328125,-0.3310948256283998,0.22802198916673658,-0.7230278585791587
1682095741386615300,4.262615234375,-0.5134500192500651,0.4998018715173006,-0.5605190828084945
1682095741406743300,4.282743408203125,-0.8474467037998139,0.4511491920292377,-0.45103521026074883
1682095741426872300,4.302872314453125,-1.0620926401734352,0.14001461988985536,-0.41082419590353964
1682095741447000300,4.323000244140625,-0.8761139953576028,-0.23406126933097837,-0.46052959931492804
1682095741467129300,4.34312939453125,-0.5692357654884457,-0.35790333757698534,-0.39346974099874493
1682095741487257300,4.36325732421875,-0.2485077278345823,-0.47459319598078725,-0.10370002844929695
1682095741507386000,4.38338623046875,0.11446779844015836,-0.4030570690333843,0.20003566561043262
1682095741527514000,4.40351416015625,0.2737286783307791,-0.17391396688222885,0.36015433137416836
1682095741547642000,4.42364208984375,0.1543402284927666,0.14251228192448614,0.29838556520342824
1682095741567771100,4.443771240234375,-0.16883680974841117,-0.06972410908937454,0.22397242151498795
1682095741587899100,4.463899169921875,0.20258301200568674,0.13765841215252875,0.2769260130673647
1682095741608028200,4.484028076171875,0.7969210700467229,0.22920798408091067,0.6771727008551359
1682095741628156200,4.50415625,1.0947617147184907,0.27745383633375165,0.9469447505146265
1682095741648285400,4.524285400390625,1.1103954833105205,0.8876637095063924,0.4203758681029081
1682095741668413400,4.544413330078125,0.43821752200275654,0.8983341566026211,-0.02995382423698902
1682095741688542500,4.56454248046875,0.06895546280443668,0.9411030387490987,0.02040624369084835
1682095741708670500,4.58467041015625,-0.007322013451159,1.0821598611682652,0.4034282404333353
1682095741728798500,4.604798583984375,-0.1316132867693901,0.8172995489478111,0.8405494916319847
1682095741748927200,4.62492724609375,-0.04644377126693725,1.0782190145879984,0.7079308272123337
1682095741769055500,4.645055419921875,-0.3665443246722221,1.0401496884346009,0.6928700362026691
1682095741789184300,4.665184326171875,-0.5649215555511414,0.5664449657261371,0.566978634211421
1682095741809312300,4.685312255859375,-0.020634061097353697,0.2949789716303348,0.5905103164464235
1682095741829441300,4.705441162109375,0.5398199936509132,0.1885638390034437,0.9336772726625203
1682095741849569300,4.7255693359375,0.9581377601802349,0.24630466483235358,1.2649556381642817
1682095741869698300,4.7456982421875,1.0741852290272713,0.396953491461277,1.3938859694600105
1682095741889826300,4.765826416015625,0.6027456747718155,0.48118660289645193,1.4433289225429295
1682095741909954300,4.785954345703125,0.0716309656240046,0.3975385978728533,1.3265718441218137
1682095741930083300,4.806083251953125,-0.033570261168479915,0.3681663729161024,1.1252958230614662
1682095741950211300,4.82621142578125,0.13217808104529977,0.37928222569227216,0.9818021288841963
1682095741970340400,4.84634033203125,0.2506787882633507,0.36202947759628296,0.9656652330756187
1682095741990468400,4.86646826171875,0.1970820765018463,0.4530307679921388,0.7433516846835613
1682095742010597000,4.88659716796875,-0.003749415661394596,0.44684418831169603,0.5601350519269704
1682095742030725000,4.90672509765625,-0.19411665082499382,0.31052023963332176,0.4585492391526699
1682095742050854100,4.926854248046875,-0.13382073368579148,0.19023147995471953,0.4062199169784784
1682095742070982100,4.946982177734375,0.04252396747469902,0.3005529723703861,0.6107184072166681
1682095742091111200,4.967111083984375,-0.027665128777921197,0.4017676137447357,0.814453511866927
1682095742111240200,4.987240234375,-0.38013957317396996,0.5006511818230152,0.7296230190604924
1682095742131368200,5.0073681640625,-0.529465772897005,0.3312964856803417,0.7979343387424945
1682095742151497200,5.027497314453125,-0.39970395921319724,0.2171200714021921,0.7715998740464448
1682095742171625200,5.047625244140625,-0.10565803064927458,0.28595512269735335,0.5763824223726988
1682095742191754000,5.06775390625,0.16048048481345176,0.23787001396417617,0.3045440878331661
1682095742211882200,5.08788232421875,0.3413683823615312,0.3114408616095781,0.1494856280684471
1682095742232011000,5.108010986328125,0.3734381758391857,0.5716711759418249,0.03875380128622055
1682095742252139000,5.128138916015625,0.32873978693485256,0.8185966030210257,-0.14076222338676453
1682095742272267000,5.14826708984375,0.3463192827671766,1.057851933863759,-0.44182022266983983
1682095742292396000,5.16839599609375,0.24188231834545731,1.0831371817678213,-0.336881592336297
1682095742312524000,5.18852392578125,-0.10501228009164333,0.7799047610551119,0.1968769093185663
1682095742332653000,5.208653076171875,-0.43580549242496486,0.07541793681681155,0.5353945784240961
1682095742352781000,5.228781005859375,-0.4008906847797334,-0.3143891900211572,0.39259354268610475
1682095742372910000,5.24891015625,-0.24674247172772884,-0.36303134811520577,0.03168225546479225
1682095742393038000,5.2690380859375,0.01355214001238346,-0.14304068971276282,0.05171031349301338
1682095742413167000,5.2891669921875,0.3849113176204264,0.02708908245563507,0.17124737802147863
1682095742433295000,5.309295166015625,0.5762136416770518,-0.07683364883363246,0.07227204000651836
1682095742453423000,5.329423095703125,0.457340447884798,-0.19580372712910174,-0.08346037349700927
1682095742473552000,5.3495517578125,0.12567688245773315,-0.29660686509311196,-0.30985739181041716
1682095742493680000,5.36968017578125,-0.011684154183417558,-0.4073334311783314,-0.22132278378903864
1682095742513809000,5.389808837890625,0.1594992186911404,-0.44498599322438237,-0.07839139966964721
1682095742533937000,5.40993701171875,0.38684199342206116,-0.403518256804347,0.13379413793981074
1682095742554066200,5.430066162109375,0.42189445597231384,-0.14597966577410698,0.24897943699955938
1682095742574194200,5.450194091796875,0.22118030657842755,0.4396393714994192,0.3453653430432081
1682095742594323200,5.4703232421875,-0.08721461146399379,0.6794809777975082,0.4025701622992754
1682095742614451200,5.490451171875,-0.3468615729503333,0.6313654739260673,0.2136170317173004
1682095742634579200,5.5105791015625,-0.3436789973914623,0.5090098448455334,0.3781470841825008
1682095742654708200,5.530708251953125,-0.05100187296271324,0.2923912932246923,0.32595278656482696
1682095742674836200,5.550836181640625,0.01294584468230605,0.0035340193450450895,0.0674427201539278
1682095742694965200,5.57096533203125,-0.13395941150411964,-0.44142333230674263,0.03493570430278778
1682095742715093200,5.59109326171875,0.07581482717990874,-0.8450555708795785,-0.29141280358135696
1682095742735222000,5.611221923828125,0.5170259780406952,-1.1751403426826,-0.4792576806604862
1682095742755350000,5.63135009765625,1.0680572476662695,-1.3319471074193716,-0.5510211866229773
1682095742775478000,5.65147802734375,1.2386597519129514,-1.4430395842075348,-0.4280231679856777
1682095742795607000,5.67160693359375,0.9091279378175735,-1.4240917226314544,-0.38894671061635017
1682095742815735000,5.691735107421875,0.4592962581276893,-1.2041302903234958,-0.7217454175531863
1682095742835864000,5.711864013671875,0.2037654997885227,-0.9039473203092813,-1.5508914716392754
1682095742855992000,5.731991943359375,-0.08487126320824026,-1.0650742863327265,-1.7793273023039102
1682095742876121000,5.75212109375,-0.0961461059384048,-1.368662680876255,-1.7838713754743336
1682095742896249000,5.7722490234375,-0.12509338348135352,-1.426830207684636,-1.807483721730113
1682095742916378000,5.792378173828125,-0.5733366249360143,-1.1746370693355799,-2.013798321479559
1682095742936506000,5.812506103515625,-1.254737026488781,-1.0590244847744703,-1.638057129395008
1682095742956634000,5.832634033203125,-1.5391748764909803,-0.7483335647493601,-1.2337842548310756
1682095742976763100,5.85276318359375,-1.3609895158998668,-0.5110486571967602,-0.9097031073570251
1682095742996891100,5.87289111328125,-0.8740875310312956,-0.45674189746975896,-0.7002139692246914
1682095743017020000,5.89302001953125,-0.2626950970105827,-0.32491818282008167,-0.3370429203778505
1682095743037148000,5.91314794921875,0.049558103895187375,-0.04585106607079505,-0.2429179450035095
1682095743057277000,5.93327685546875,-0.09283844269514083,0.08123977483808993,-0.07757482258975505
1682095743077405000,5.953405029296875,-0.20508695765063165,0.07874971158802509,0.12923954337537288
1682095743097534000,5.973533935546875,-0.16953063723146913,0.01049041435420513,0.24722879393994807
1682095743117662000,5.993661865234375,-0.01121112984418869,0.17323709053397177,0.3467465682685375
1682095743137790000,6.0137900390625,-0.0541886863052845,0.2700456059038639,0.2171416987121105
1682095743157919000,6.0339189453125,-0.3861468507647514,0.5055559049993753,-0.21965397379398344
1682095743178047000,6.054046875,-0.5638077490903437,0.9424082761287689,-0.7199199556916952
1682095743198176000,6.074176025390625,-0.7402787069790064,1.1494897685974836,-0.7140244679123163
1682095743218304000,6.094303955078125,-0.9784148245334625,1.2283458631694315,-0.42769934285879135
1682095743238432800,6.114432861328125,-1.0406697667859495,1.0852408760488033,-0.09155307905972003
1682095743258560800,6.134560791015625,-1.1127005453824996,0.6089063893586397,0.19376023860275746
1682095743278689000,6.15468896484375,-0.9855272868871688,0.1043207906961441,0.15680325760543345
1682095743298817800,6.17481787109375,-0.5606042768739163,-0.2415846505731344,0.2857090389817953
1682095743318945800,6.19494580078125,-0.02601414670050144,-0.12553659720420837,0.3892196823388338
1682095743339074800,6.21507470703125,0.3645464288532734,-0.1562000310152769,0.6856909383535384
1682095743359202800,6.235202880859375,0.5747330477304756,-0.34222646049559113,0.7575380309462547
1682095743379332000,6.25533203125,0.5390227057933807,-0.32742169007360933,0.3735895670086145
1682095743399459800,6.2754599609375,0.3571016658052802,-0.3998451212495565,0.228453950843215
1682095743419589000,6.295589111328125,0.6888917802214622,0.055397477573156356,0.3021428719103336
1682095743439717000,6.315717041015625,1.2416729622542857,0.6767459998756646,0.6318728389263153
1682095743459845000,6.33584521484375,1.507672507637739,1.1465414401859044,1.0604285063534975
1682095743479974100,6.35597412109375,1.1579098064184188,1.3901871149420737,1.1224363419771193
1682095743500102100,6.37610205078125,0.33519889994636176,0.9820113877207041,0.827255125772953
1682095743520231000,6.39623095703125,-0.4545011328056454,0.6206704769104718,0.6786170544445514
1682095743540359000,6.41635888671875,-0.6512763353154063,0.3810363758832216,0.8446253627687692
1682095743560488000,6.436488037109375,-0.4609608303390443,0.35311727234423157,1.2267775909394025
1682095743580616000,6.456615966796875,0.2318476849347353,0.5201712903290987,1.7344716770112514
1682095743600745000,6.476744873046875,0.7634295732028782,1.0359767866641283,1.7375135289251804
1682095743620873000,6.496873046875,0.5174859967678785,0.8906570461034774,1.5240987417817116
1682095743641001000,6.5170009765625,0.13851298315525054,0.6849152778059244,1.362422325181961
1682095743661130000,6.5371298828125,-0.4777716798864305,0.4655588256537914,1.4632622880250215
1682095743681258000,6.557258056640625,-0.27128011613488195,0.25407529883384705,1.3279542383909224
1682095743701387000,6.577386962890625,0.026315759995579717,-0.14850830746889113,0.8524000884234905
1682095743721515000,6.597514892578125,0.5133493353545665,-0.03906359788775444,0.6254360838770866
1682095743741644000,6.61764404296875,0.47572132322788235,0.08352174829542637,0.45503041737675665
1682095743761772000,6.63777197265625,0.27739070796966553,0.04624620286822319,0.30176234816014763
1682095743781900800,6.65790087890625,0.2697289411701262,-0.16520809785723686,0.17015315304398534
1682095743802028800,6.67802880859375,0.37392800518274305,-0.09604396073818207,0.05168927070498466
1682095743822156800,6.69815673828125,0.5096243234820663,-0.09980594362020492,0.11843524076640605
1682095743842285800,6.718285888671875,0.4906907826922834,0.013652093255519866,0.17512977241277694
1682095743862413800,6.738413818359375,0.48757060484513637,0.21960487395524977,0.146841251039505
1682095743882542800,6.75854296875,0.4580174703635275,0.3955763578891754,0.15837679053246975
1682095743902670800,6.7786708984375,0.3723496499501168,0.4261491908073425,0.3081125939697027
1682095743922800000,6.798800048828125,0.3372213456846773,0.35181904922723767,0.41783845857977864
1682095743942928000,6.818927978515625,0.31025311312973497,0.5054956992447376,0.08373626782894134
1682095743963055900,6.839055908203125,0.2833469860255718,0.633900545361638,0.12163023741543293
1682095743983185200,6.85918505859375,-0.08289704052582382,0.539598459854722,0.5298989036172628
1682095744003313200,6.879313232421875,-0.38862858457788824,0.2327104392439127,0.6402700803935527
1682095744023442000,6.89944189453125,-0.32234161033034325,0.13035948731601238,0.024829320830106735
1682095744043570000,6.91956982421875,-0.12613266340121626,0.02641629776060581,-0.3250613906830549
1682095744063699000,6.939698974609375,0.17479074971675873,0.3828922328829765,-0.4547492623478174
1682095744083826200,6.959826171875,0.17046178060173986,0.6044330433368682,-0.7355459793686866
1682095744103955200,6.979955078125,0.10882000181153416,1.0019903459101915,-1.108415999931097
1682095744124083200,7.000083251953125,-0.1062475209750235,1.0424410142421723,-0.7846849810689688
1682095744144211200,7.020211181640625,-0.3787349670730531,0.6068173081248999,-0.15912673211693762
1682095744164340200,7.04034033203125,-0.446830671242997,0.2869540706068277,0.2346481293082237
1682095744184468200,7.06046826171875,-0.47204818767309187,0.18717559951543808,0.26532383807897564
1682095744204597200,7.08059716796875,-0.5642750743411481,-0.23042086700201034,0.48126960500478744
1682095744224725200,7.100725341796875,-0.6678805563747883,-0.5814122332334518,0.29742227312922476
1682095744244854300,7.120854248046875,-0.5110013109236955,-0.5721674350261687,0.4372364020109176
1682095744264982300,7.140982177734375,-0.15807568869404492,-0.0776338593006134,0.28594986200034617
1682095744285110300,7.1611103515625,0.08021642313972115,-0.4624029919713735,0.10655307979285716
1682095744305239300,7.1812392578125,0.43814357998371123,-1.0418933172315359,-0.19840017336308954
1682095744325367300,7.2013671875,0.4798902064103633,-1.0751531972765922,-0.7453513340681791
1682095744345496000,7.22149609375,0.07168817570395768,-0.6969482454270124,-0.6064420450717211
1682095744365624000,7.2416240234375,-0.2790991923879832,-0.1805728402495384,-0.6148387020170688
1682095744385753000,7.261753173828125,-0.356654871885851,-0.008939677780866623,-0.5892746371716261
1682095744405881000,7.281881103515625,-0.17679390623271465,-0.13104396244883537,0.04684592232704162
1682095744426010000,7.302010009765625,-0.008902341445162892,-0.22459376828372477,0.5171814608633518
1682095744446138000,7.32213818359375,-0.15737024383842943,-0.004007482075691223,0.7155828032702207
1682095744466266000,7.34226611328125,-0.570248888053745,0.3755494689047336,0.5550894589751959
1682095744486395100,7.36239501953125,-0.8138659943025559,0.7961024471402168,0.2883791349738836
1682095744506523100,7.382523193359375,-0.7455125159792602,0.7084153958588838,0.5679413417637348
1682095744526652200,7.402652099609375,-0.3844833014667034,0.2755143927037716,0.18634557843208313
1682095744546780200,7.4227802734375,0.0702484252244234,-0.268316590154171,-0.12265022811293601
1682095744566909400,7.442909423828125,0.2225011068534106,-0.48441667085886,-0.29428982032239437
1682095744587037200,7.463037109375,0.3066057696033269,-0.49538873125016686,-0.3618360008507967
1682095744607166200,7.483166259765625,0.25660993187800046,-0.44154783546924586,-0.38021220001876355
1682095744627294200,7.503294189453125,0.3328092283308506,-0.4593500341415405,-0.34635143147110936
1682095744647422200,7.523422119140625,0.5425631548792124,-0.6571084024697542,-0.32424890525639055
1682095744667551200,7.54355126953125,0.5596935917697846,-0.8387234452486038,-0.3188210349887609
1682095744687679200,7.56367919921875,0.4293172994494438,-0.8687047420144081,-0.2665051568180323
1682095744707808300,7.583808349609375,0.13771262655779717,-0.7022223864376544,-0.387024218121171
1682095744727936300,7.603936279296875,-0.09453063356578349,-0.74853873193264,-0.389812387534976
1682095744748065300,7.624065185546875,-0.13038637532293795,-0.9480378064483403,-0.4801788871586323
1682095744768193300,7.644193359375,-0.06363624054305254,-1.030059671574831,-0.3451782960385084
1682095744788321300,7.6643212890625,0.06736154467649758,-1.0319406630158423,-0.19851824678480623
1682095744808450300,7.6844501953125,0.16153072451874612,-0.7585211967647075,-0.5395774170666933
1682095744828578300,7.704578369140625,0.11237316424846648,-0.6451046609431504,-0.6347527782768011
1682095744848707000,7.72470703125,0.21268245428092777,-0.4075350912302732,-0.6950450421541929
1682095744868835300,7.74483544921875,0.15799159060716628,-0.22530396237969397,-0.6332920580744743
1682095744888964000,7.764964111328125,0.15535364331901072,-0.3635515725970268,-0.3999637791931629
1682095744909092000,7.785092041015625,0.13659706653133033,-0.3284253141582012,-0.5559428609341382
1682095744929221000,7.80522119140625,0.08116568668857216,-0.16565233449339867,-0.7089514024317264
1682095744949349000,7.82534912109375,0.006658361910656094,-0.3156418204307556,-0.3724713766336441
1682095744969477000,7.84547705078125,0.10166048544570803,-0.31017887884974477,-0.12223054139614105
1682095744989606100,7.865606201171875,0.43764556733369825,0.0026759412109851836,-0.264355285307765
1682095745009734100,7.885734130859375,0.6152817696094512,0.3535287757545709,-0.46561377071142196
1682095745029863200,7.90586328125,0.5078292567588388,0.35424189245998855,-0.545575780698657
1682095745049991200,7.9259912109375,0.5903349598795176,0.7651374000340699,-0.6353297013819217
1682095745070120200,7.9461201171875,0.3110321346782148,0.8105062355458736,-0.027368483918905256
1682095745090248400,7.96624853515625,0.0806184280693531,0.7032955686271191,-0.13917057028114796
1682095745110376400,7.98637646484375,0.07010521736145019,0.43337621945142746,-0.5146867214381694
1682095745130505200,8.006505126953124,0.08699658479914069,-0.025934651723504065,-0.398214305177331
1682095745150633200,8.02663330078125,0.18629589407145977,-0.26541677705943584,-0.04354980339109897
1682095745170762200,8.04676220703125,0.045189387291669846,-0.5114689284354448,0.25569559351205823
1682095745190890200,8.06689013671875,-0.11447452044188976,-0.6098340255975723,0.3854062615305185
1682095745211019300,8.087019287109374,-0.21218802182748914,-0.5519704501718282,0.4455868817269802
1682095745231147300,8.107147216796875,-0.09967778719589114,-0.38300036943256854,0.326120544347167
1682095745251276300,8.1272763671875,0.21120529440045355,0.04556991104185581,0.33059389036893844
1682095745271404300,8.147404296875,0.3476543307632208,0.5721563291102647,0.4927238959550857
1682095745291532300,8.1675322265625,0.23618644479140638,0.9328373147070407,0.7848515698075293
1682095745311661300,8.187661376953125,-0.08190832174941896,0.9486597377389668,0.5861053594857454
1682095745331789300,8.207789306640626,-0.38851518733128904,0.8578355574756861,0.3104378220468759
1682095745351918300,8.22791845703125,-0.46615386893749233,0.682254534164071,0.18704642017781734
1682095745372046300,8.24804638671875,-0.39927272818908094,0.574237227037549,0.3774731304436922
1682095745392175000,8.268175048828125,-0.49222310682609677,0.35847383094131946,0.6458557715713977
1682095745412303000,8.28830322265625,-0.5971520925484597,0.23455519032776354,0.6995330012232065
1682095745432431000,8.30843115234375,-0.7392898420721292,0.019081717088818548,0.8868407026857137
1682095745452560100,8.32856005859375,-0.5943704990059137,-0.10134791236519813,0.908935045593977
1682095745472688000,8.348688232421875,-0.24029417237117884,-0.08902034571170807,1.0802665947675705
1682095745492817400,8.3688173828125,0.11827040559351444,0.29300036503374577,1.1040315012365578
1682095745512945200,8.388945068359375,0.10459142433106898,0.4547621218293905,1.1577291891545056
1682095745533074400,8.409074462890626,-0.02988543517589569,0.4715361464977264,1.029572764840722
1682095745553202400,8.429202392578125,-0.26349033904150126,0.3622510113924742,0.6413806719839572
1682095745573331500,8.44933154296875,-0.42149625043496486,0.35031390536129475,0.3844137433618307
1682095745593459500,8.46945947265625,-0.5058597102515399,0.3423059554725885,0.37051264378130433
1682095745613588200,8.489588134765626,-0.31457623702585696,0.14864683915674687,0.2680138078153133
1682095745633716200,8.50971630859375,0.024873744493722913,-0.058814592540264124,0.13739128564894199
1682095745653844500,8.529844482421876,0.30112127377763387,-0.19362170691490171,-0.006625555619597435
1682095745673973200,8.54997314453125,0.3434358362853527,-0.25246961720287797,-0.0642488925486803
1682095745694101200,8.570101318359375,0.15698431326076387,-0.19890461575388907,-0.14944295797049997
1682095745714230300,8.590230224609375,-0.04832242462038994,-0.07800269261300563,-0.05273965654075145
1682095745734358300,8.610358154296875,-0.17886662085354327,-0.057421676877141,0.05693652370870113
1682095745754487300,8.6304873046875,-0.2397544394712895,-0.17040975815355777,0.2494365331172943
1682095745774615300,8.650615234375,-0.1481960997145623,-0.28779285951852795,0.19294950674176214
1682095745794743300,8.670743408203125,0.06439926080480217,-0.18190028946101663,-0.023124270477890965
1682095745814872300,8.690872314453125,0.14412088616490362,-0.13428104467391966,0.17712825275361538
1682095745835000300,8.711000244140624,0.1241137247942388,0.09909341143667698,0.5521820470958948
1682095745855129300,8.73112939453125,-0.022955343651771543,0.018897592693567274,0.7170236497282981
1682095745875257300,8.75125732421875,0.0007231266427785158,-0.038539866274595255,0.27505028232336043
1682095745895386000,8.77138623046875,0.15868950974345206,0.1023211413115263,-0.06303717867136001
1682095745915514000,8.79151416015625,0.2557494425911456,0.4068617220133543,-0.19632161352336405
1682095745935643100,8.81164306640625,0.17260303041413425,0.7891986591011285,-0.3979723131150007
1682095745955771100,8.831771240234374,-0.11278817479014396,0.7299123573958873,-0.7587725411772728
1682095745975899100,8.851899169921875,-0.2645623521871865,1.0846645374655723,-1.0141840570509433
1682095745996028200,8.872028076171874,-0.44267347849830985,1.4053759162455797,-0.20118542016744612
1682095746016156200,8.89215625,-0.6739362031519412,1.1285416731148958,0.5316974774718284
1682095746036285400,8.912285400390624,-0.3579389934122562,0.5876490817964076,0.5033598562598228
1682095746056413200,8.9324130859375,0.2680033594865352,-0.029418986707925796,0.2555418642550707
1682095746076542500,8.95254248046875,0.8196388055503367,-0.2291711592018604,0.12486147442162036
1682095746096670700,8.972670654296875,1.0023341178465635,-0.2633539993107319,0.18338439053893088
1682095746116799500,8.992799560546874,0.6825475257612764,-0.29211715245842934,0.22181495122015474
1682095746136927500,9.012927490234375,0.21689861067123709,-0.2742880657792091,-0.102909170332551
1682095746157055700,9.0330556640625,0.1626694462250918,0.1015799675554037,-0.3684481124669313
1682095746177184500,9.0531845703125,0.23096447235941886,0.20439678342938422,0.0746715023636818
1682095746197312500,9.0733125,0.2227490902651101,0.10556173066794872,0.6179425132513046
1682095746217441500,9.093441650390625,0.08356734100282191,0.03990004871189594,0.7833803282111883
1682095746237569500,9.113569580078124,-0.299978314287588,-0.03912380364239216,0.9122253193110227
1682095746257698600,9.133698486328125,-0.4620931953698396,0.17482991268336773,0.7434487153172492
1682095746277826600,9.15382666015625,-0.1611807420372963,0.42943771095871924,0.5658581057488918
1682095746297955600,9.17395556640625,0.007047068967297673,0.3079723087161779,0.5797545291543007
1682095746318083600,9.19408349609375,-0.00452295731715858,-0.08507248486876487,0.5316045384913682
1682095746338211600,9.214211669921875,0.010477627937868238,-0.6591910539627075,0.3176671887785196
1682095746358340600,9.234340576171874,0.02499240243732929,-1.1045464650213719,-0.05583469994664192
1682095746378468600,9.254468505859375,0.4073831886041909,-1.1708224794834852,-0.46299102099239825
1682095746398597400,9.274597412109374,0.8624299725938588,-1.051891564154625,-0.6123761112958193
1682095746418725400,9.294725341796875,1.1465408556640146,-0.9472294126749038,-0.5169511592388153
1682095746438854400,9.3148544921875,1.1522972272336482,-0.8001818254083395,-0.39303076505959034
1682095746458982400,9.334982421875,0.7612948261965066,-0.5610767166912556,-0.3681611122190952
1682095746479111400,9.355111328125,0.201129927120544,-0.06103694476485252,-0.23922902735769747
1682095746499239400,9.375239501953125,-0.35241285040192305,0.19611410825252532,0.03786532801389694
1682095746519367400,9.395367431640626,-0.737934335809946,0.2399555880665779,0.22831308106780052
1682095746539496400,9.415496337890625,-0.8466834643423556,-0.08386544716656208,0.24869360579550265
1682095746559624400,9.43562451171875,-0.5439268444478511,-0.41352760964334007,0.1635375342965126
1682095746579753700,9.455753662109375,-0.25880108524672685,-0.6340829161912203,0.04768295767307281
1682095746599881700,9.4758818359375,-0.17862630929164589,-0.871160902994871,-0.17864508705735205
1682095746620010500,9.496010498046875,0.1371516316741705,-0.7787643588483333,-0.41294951749444003
1682095746640138800,9.516138671875,0.6315501828432083,-0.5408177725166082,-0.29801848545670506
1682095746660267500,9.536267578125,1.055691467894241,-0.5736351694911718,-0.29004268427193164
1682095746680395500,9.5563955078125,1.0782535013794898,-0.7904466133356094,-0.40678690321147437
1682095746700523500,9.5765234375,0.6549743130505085,-0.8261784364521503,-0.4917278706550598
1682095746720652500,9.596652587890626,0.05309095419645309,-0.623391426306963,-0.40307226660251616
1682095746740780500,9.616780517578125,-0.38087329427599903,-0.41683132736384865,-0.3974479969799518
1682095746760909600,9.63690966796875,-0.6305033041387796,-0.3697264618396759,-0.5718842341706156
1682095746781037600,9.65703759765625,-0.6665945351522415,-0.36113983528017995,-0.906059197896719
1682095746801166600,9.67716650390625,-0.4369441045334562,-0.15408756890594957,-1.0819818742528557
1682095746821294600,9.697294677734375,-0.32924656741321084,-0.05740472574234008,-0.9244605315059423
1682095746841423600,9.717423583984376,-0.6635235302090644,-0.16118483369052408,-0.9700658061221241
1682095746861551600,9.737551513671875,-0.8615677297413349,-0.23541619107127187,-1.0114733367875217
1682095746881679600,9.7576796875,-0.5896914012789726,-0.050776247513294216,-1.0825941609323024
1682095746901808400,9.777808349609375,-0.15431019868068396,0.6214981599062681,-1.3607827412813902
1682095746921936400,9.797936279296875,-0.10364851745776832,0.696174922966957,-0.9476090596422553
1682095746942065400,9.8180654296875,-0.028316505358740685,0.6310200214892625,-0.6533849980324506
1682095746962193400,9.838193359375,-0.18845387582294643,0.24289105699658392,-0.24455665212124586
1682095746982322400,9.858322509765625,-0.3104659521628171,-0.18922317969501018,-0.21119564978927372
1682095747002450400,9.878450439453125,-0.05674005128853023,-0.41363340810537336,-0.3180024120822549
1682095747022578400,9.898578369140624,0.18738485835194588,-0.4737216738432646,-0.15468115088492632
1682095747042707500,9.91870751953125,0.08590542856156826,-0.5865513496875763,-0.21021686788499355
1682095747062835500,9.93883544921875,-0.0045564942605793475,-0.6421703610569238,-0.3846811621263623
1682095747082965000,9.958965087890626,-0.1529021585136652,-0.7373883923649788,-0.3795096047073602
1682095747103092700,9.9790927734375,-0.07967457134798168,-0.46404608300328254,-0.323860198199749
1682095747123221800,9.9992216796875,0.012726064451783895,-0.09401040908396244,0.06410013172775507
1682095747143349800,10.019349853515624,0.14094700536914168,0.1419920574426651,0.45578795774579045
1682095747163478800,10.039478759765625,0.3642629357367754,0.3329863384634256,0.6497273523077368
1682095747183606800,10.059606689453124,0.7225127486638724,0.5619558376133441,0.6412918246567249
1682095747203734800,10.07973486328125,0.8591811268657445,1.0387351454615592,0.833946732366085
1682095747223863800,10.09986376953125,0.6539929007977247,1.1187538540720938,1.2413725180029869
1682095747243991800,10.11999169921875,0.3163338943481445,1.2053110245406626,1.1951742459297179
1682095747264120800,10.140120849609374,-0.0843605372071266,0.8257944055706262,0.8878256220698356
1682095747284248800,10.160248779296875,-0.2792601551033556,0.5684107128411531,0.48935003560781476
1682095747304377900,10.1803779296875,-0.36809184637516734,0.32505963711738584,0.36713586082458494
1682095747324505900,10.200505859375,-0.5342202739477158,0.23606091871559617,0.27209143251776696
1682095747344633900,10.2206337890625,-0.6196118347030133,-0.4710737896829843,-0.6917559374809265
1682095747364763000,10.240762939453125,-0.06128419752418995,-0.4475947144180536,-0.5511515350043773
1682095747384891000,10.260890869140624,0.22908238493986427,-0.1968248868703842,0.15388532433211802
1682095747405019600,10.28101953125,0.6101373924583197,-0.3385509868532419,0.3100608054280281
1682095747425147600,10.301147705078124,0.6711515408694744,-0.6627852790623903,0.38380174894332886
1682095747445276700,10.321276611328125,0.579157147783041,-0.684149554130435,0.5524783996939658
1682095747465404700,10.34140478515625,0.37515667019486426,-0.4303647626757621,0.6432353599399327
1682095747485533700,10.36153369140625,0.06577551759406924,0.11725509107112884,0.3545160332262516
1682095747505661700,10.38166162109375,-0.21370354095697403,0.06784136408269405,-0.06518237400650978
1682095747525789700,10.401789794921875,-0.27856267435848714,-0.22568799326121805,-0.32776655798852444
1682095747545918700,10.421918701171874,-0.06142857443094253,-0.24047698159217834,-0.297781754091382
1682095747566046700,10.442046630859375,-0.022139789485186336,-0.226762344494462,-0.055476388028264045
1682095747586175700,10.46217578125,-0.2997038081951439,-0.06836334213018418,0.1855178954362869
1682095747606303700,10.4823037109375,-0.576752278598398,0.12851181362271308,0.13251403500139713
1682095747626432800,10.502432861328124,-0.7401407598130405,0.10243103142678738,0.09843991596400738
1682095747646560800,10.522560791015625,-0.5203308648049831,0.2525999655842781,0.2751969973176718
1682095747666688800,10.542688720703126,-0.028425299495458602,0.49807811646461486,0.8220879522681236
1682095747686817800,10.56281787109375,0.21575828152969478,0.7374860075205564,1.031765890970826
1682095747706945800,10.58294580078125,-0.024195626036450264,0.7900614134103059,0.8339426407128572
1682095747727074800,10.60307470703125,-0.32955504884049297,0.6049672963440418,0.3939034562408924
1682095747747202800,10.623202880859376,-0.24814415521919725,0.39208910029530525,0.4450801012486219
1682095747767331800,10.643331787109375,-0.06699395347312093,0.20801205131709574,0.7130132450431584
1682095747787459800,10.6634599609375,0.11709741629138588,0.1772100858181715,0.4842635261237621
1682095747807587800,10.683587890625,0.14345672316774724,0.21606793200075625,0.18190379659235476
1682095747827716900,10.703716796875,0.08703414033055305,0.20272680439054966,0.11230594423115253
1682095747847844900,10.723844970703125,0.2240256130069494,0.2228150681734085,0.17593991975188256
1682095747867974000,10.743973876953126,0.4637328523356467,0.3284375891178846,0.20034312412440775
1682095747888102000,10.764101806640625,0.5449089873529971,0.6391033747017383,0.09758534496128558
1682095747908230700,10.784230712890626,0.1895084263771772,0.8006774999707936,0.5340659601688384
1682095747928359000,10.80435888671875,-0.39935244236178696,0.586585251957178,0.8663871127218008
1682095747948487000,10.82448681640625,-0.632964798881486,0.1514239026546478,1.0959265207141637
1682095747968615700,10.84461572265625,-0.31139125031419096,0.04106032466292381,1.074737602213025
1682095747988743700,10.86474365234375,0.2066904473245144,0.2466863576263189,0.5728945802569388
1682095748008872700,10.884872802734375,0.4659762473482638,0.31648587003946305,0.07176350596249104
1682095748029000700,10.905000732421875,0.21621523151695726,0.5775520506739616,-0.21757190682291982
1682095748049129700,10.925129638671875,-0.3966552756996825,0.8256015133470297,-0.23909867897629736
1682095748069257700,10.9452578125,-1.0978302354436367,0.7589940749734639,-0.4322457541167736
1682095748089385200,10.96538525390625,-1.038814055916667,0.4065063327044248,-0.9039245239555835
1682095748109514200,10.98551416015625,-0.33577750355191527,0.14121288976371288,-1.0043196656405926
1682095748129642200,11.005642333984374,0.20613105987608432,-0.024227847805619238,-0.5767670377761125
1682095748149771300,11.025771240234375,0.34898181650731713,-0.1231821430325508,-0.1041769983112812
1682095748169899300,11.045899169921874,0.34743403907604514,-0.33013036451041694,0.1840717882812023
1682095748190028300,11.0660283203125,0.4285591745585203,-0.5439882192462683,0.36026539053320883
1682095748210156300,11.08615625,0.7641676051538437,-0.6591080518543719,0.5403717823147773
1682095748230285000,11.10628515625,1.1388280893296003,-0.4743003505140543,0.69490124976933
1682095748250413000,11.1264130859375,1.2428051811546086,-0.04166822742819786,1.037681837016344
1682095748270541300,11.146541259765625,0.8955208527475595,0.1589011066675186,1.2088637485861777
1682095748290670300,11.16667041015625,0.7728619298715144,0.2399994272083044,1.005018169298768
1682095748310798000,11.186798095703125,0.8113608065485953,-0.016435586494207382,0.9123948306590318
1682095748330927400,11.20692724609375,0.9572341624040156,-0.05682721811532974,0.7847820117026567
1682095748351055400,11.227055419921875,1.0033809234857558,0.0749976655781269,0.6871200943738222
1682095748371184400,11.247184326171874,0.666461264161393,0.01065992570221424,0.6642056672543287
1682095748391312400,11.2673125,0.44653504929728804,-0.14832301402986048,0.4663040910631418
1682095748411440400,11.2874404296875,0.4247106824368238,-0.3460620931357145,0.3470733160048723
1682095748431569400,11.3075693359375,0.5178291111171245,-0.3132423580735922,0.20029460880756378
1682095748451697400,11.327697509765626,0.4844617521096021,-0.18776888923346996,-0.013971242207288742
1682095748471826400,11.347826416015625,0.21337273810002952,-0.15783318517506123,-0.011210545322299002
1682095748491954400,11.367954345703126,-0.04559442442860454,-0.32470892398357387,0.07253741294443607
1682095748512083200,11.388083251953125,-0.09041727996282278,-0.28039456596076484,0.38113457556068897
1682095748532211200,11.408211181640626,-0.23525599554087964,-0.477314729899168,0.1453027894258499
1682095748552339200,11.428339111328125,-0.2575941206097603,-0.5922580368965864,-0.4835340428054332
1682095748572468200,11.44846826171875,0.020804376162961123,-0.6906500220656394,-0.45546647070646284
1682095748592596200,11.46859619140625,0.4346615830868482,-0.7296376321077347,-0.3193886057436466
1682095748612725200,11.488725341796876,0.6778858175605535,-0.7513210561275482,-0.5341591914102435
1682095748632853200,11.508853271484375,0.5359907907515764,-0.5863356611102819,-0.6771379218026995
1682095748652982300,11.528982177734376,-0.12997779452204702,-0.5513906044572592,-0.8166267642527818
1682095748673110300,11.5491103515625,-0.7259247490644455,-0.4197007453203201,-0.6578317483082413
1682095748693239300,11.5692392578125,-0.942978769493103,-0.36936522731184956,-0.7213461891025305
1682095748713367300,11.5893671875,-0.8208604562997818,-0.21750819393694398,-1.0598647349908947
1682095748733495300,11.609495361328126,-0.7778682867914438,-0.6353349620789289,-1.1554314336061478
1682095748753624300,11.629624267578125,-0.44481995247509326,-0.598780716663599,-1.1599115016296506
1682095748773752300,11.64975244140625,0.023040135858394203,-0.42126258780956266,-0.8032830062940717
1682095748793881000,11.669881103515625,0.11702946562170982,-0.06072714816331863,-0.920283538082242
1682095748814009000,11.690009033203125,-0.21917758845388888,0.17760230000615118,-1.138002452160418
1682095748834138400,11.710138427734375,-0.5032423673599958,0.1711877567887306,-1.2543462736055255
1682095748854266000,11.73026611328125,-0.2794867304008454,0.11879179911911487,-1.1051523219600319
1682095748874394000,11.75039404296875,-0.03803483936190605,0.045886721906065936,-0.9519424126714467
1682095748894523400,11.7705234375,-0.23610534237921235,0.1067524017572403,-0.4807248306035995
1682095748914651400,11.7906513671875,-0.6952794354319572,-0.0034942718565464017,-0.20910510725080966
1682095748934780400,11.810780517578126,-0.6243535493373871,-0.25114625964462756,0.18966829311400651
1682095748954908400,11.830908447265625,-0.07237031274922191,-0.8164841409116983,-0.44317455988824367
1682095748975037400,11.851037353515625,0.3935112420529127,-0.5757184055060148,-0.5325955953553319
1682095748995165400,11.87116552734375,0.39443836683519184,-0.12292904505431651,0.010166589227318763
1682095749015293400,11.89129345703125,0.25113869739267974,0.021019991675019264,0.020985797144472598
1682095749035422200,11.911422119140624,0.2661334008961916,0.40642683772742744,-0.2954921818494797
1682095749055550500,11.931550537109375,0.3355097559938207,0.4830599955528974,-0.16837912910878658
1682095749075679200,11.95167919921875,0.3970225381094962,0.35711131041646,0.03337619990110397
1682095749095807500,11.971807373046875,0.17925065173506735,0.21614216628074645,-0.011214636975526809
1682095749115936500,11.9919365234375,-0.06409048711657524,0.0656739569157362,-0.1045516768425703
1682095749136064500,12.012064453125,-0.2080482916742563,-0.07284837858974934,-0.06926233679652213
1682095749156192500,12.032192626953124,-0.15900690512955187,-0.19230068744421003,0.04555412895083427
1682095749176321500,12.052321533203125,-0.03583352992534637,0.08685352306663989,0.13458207344710826
1682095749196449500,12.072449462890624,-0.07261983053088188,0.4893693248301744,0.1581996803998947
1682095749216578600,12.09257861328125,-0.1319475602250546,0.6104179629653692,0.1699064848065376
1682095749236706600,12.11270654296875,-0.09875782280676067,0.5210568409919738,0.0016764087796211243
1682095749256835600,12.132835693359375,-0.07627068118862808,0.14332593639492988,0.05264496399462223
1682095749276963600,12.152963623046874,-0.05295761014036834,0.06854103678464889,0.030841712987422942
1682095749297091600,12.173091552734375,-0.04688216268420219,0.38818040241897106,0.07968202400207519
1682095749317220600,12.193220703125,-0.3483727812308818,0.47848377367854117,0.22402853561639785
1682095749337348400,12.213348388671875,-0.6076899627735838,0.48488545741438865,0.3648690849363804
1682095749357477600,12.2334775390625,-0.8305307864427566,0.12239771465659141,0.5464180767416954
1682095749377605600,12.253605712890625,-0.7877502138584852,-0.10390110397934912,0.7492769830793142
1682095749397734700,12.273734619140624,-0.13118885081224144,-0.30770985838770865,0.965021089953184
1682095749417862700,12.293862548828125,0.30105105808563526,-0.2937742720156908,0.9638438628673552
1682095749437990700,12.31399072265625,0.5254303068358451,-0.15839666427671908,1.1457803926855326
1682095749458119700,12.33411962890625,0.5733096638638526,-0.010277648386359214,1.1905407409101725
1682095749478247700,12.35424755859375,0.4522621947724372,0.23808511801958082,1.0760329027205704
1682095749498376700,12.374376708984375,0.24229024155922232,0.2662421219676733,1.2010615504026412
1682095749518504700,12.394504638671876,0.07346095753014087,0.4926847329884767,1.3485796777904033
1682095749538633500,12.414633544921875,0.007742650016024709,0.555434326890111,1.4732517671197651
1682095749558761500,12.434761474609376,0.15358838721215723,0.5244184263795614,1.1377572452276945
1682095749578890500,12.454890380859375,0.26703765625953674,0.4297264647722244,0.7087696161240339
1682095749599018500,12.4750185546875,0.24069325469136238,0.32828970507979394,0.45401334928870196
1682095749619146500,12.495146484375,0.30584581808149813,0.2550274849921465,0.167550277069211
1682095749639275500,12.515275634765626,0.4286212800092995,0.3306342223793268,0.20268062716126442
1682095749659403500,12.535403564453125,0.3033843964040279,0.35607261501848697,0.13929974961876868
1682095749679532500,12.555532470703126,0.12994213868677615,0.451118796890974,0.020990765580534934
1682095749699660500,12.57566064453125,-0.09914305926468223,0.5082125569880008,0.05043371768593788
1682095749719789600,12.59578955078125,-0.16720007539205253,0.6715501847982406,0.07424772399365902
1682095749739917600,12.61591748046875,-0.18889171925093978,0.613044219815731,0.2521411159008741
1682095749760046600,12.636046630859376,-0.18789806857109068,0.3968529536962509,0.3832113818347454
1682095749780174600,12.656174560546875,-0.07174184211995452,0.4842109191536903,0.0030190555602312087
1682095749800302600,12.676302490234375,0.1653185724943876,0.7129565464198588,-0.444535326847434
1682095749820431400,12.696431396484375,0.553945513104461,0.820802004110813,-0.9152379451304674
1682095749840559400,12.716559326171875,0.5740939826419577,0.6276175195693969,-0.6227163035243749
1682095749860688600,12.736688720703125,0.23872809209823606,0.5463707304686307,-0.14506138188540935
1682095749880816400,12.75681640625,-0.3819634641328826,0.48678398451209065,0.45694998726248737
1682095749900945700,12.776945556640625,-0.9418190780639648,0.18519348578751085,0.8111819428503513
1682095749921073700,12.79707373046875,-1.058355791732669,-0.3478156588047743,0.5370557896345853
1682095749941201700,12.81720166015625,-0.6339841319918632,-0.778949652287364,0.20699322966337202
1682095749961330700,12.83733056640625,0.08767594536542891,-0.7549106050521135,0.1452379074960947
1682095749981458700,12.857458740234375,0.44544484290778635,-0.7067974392682314,0.24740356598496435
1682095750001587700,12.877587646484375,0.4247241629729047,-0.5826672017306089,0.20152561190724372
1682095750021715700,12.8977158203125,0.27381635661423204,-0.4977490306407213,0.11155950977802276
1682095750041844500,12.917844482421875,0.08517422821018844,-0.47657472518682475,0.048993455749750135
1682095750061972700,12.93797265625,0.10218324894448742,-0.4110089048206806,0.0010965630650520324
1682095750082101500,12.9581015625,-0.07880522290123626,-0.37597616988420485,0.12019465165436267
1682095750102229200,12.978229248046874,-0.44860885989665983,-0.22245558721125125,0.1909825905829668
1682095750122357200,12.998357177734375,-0.7345137137115001,-0.1430243230998516,0.23039397899508474
1682095750142486300,13.018486328125,-0.7884335199475287,-0.25690672286748883,0.3253589123249054
1682095750162614300,13.0386142578125,-0.5520265642732382,-0.24205752878189085,0.29723990229964253
1682095750182743600,13.05874365234375,-0.26201484139515085,-0.10302607471048832,0.15374094742536543
1682095750202871600,13.07887158203125,-0.012198935305140912,0.15759177763462065,-0.08666822962760924
1682095750223000600,13.09900048828125,-0.09236379265440628,0.032256840482354165,-0.17285072156488895
1682095750243128600,13.119128662109375,-0.17395543140377848,-0.26348843934535976,-0.3227092745989561
1682095750263256600,13.139256591796874,-0.014477438163757324,-0.46882045779824255,-0.4174403991729021
1682095750283385600,13.159385498046875,0.19559969245698303,-0.6035878246843814,-0.5326017328351735
1682095750303513600,13.179513671875,0.29205059002824124,-0.7136071192830801,-0.7489315306425094
1682095750323642400,13.199642333984375,0.34096338175721463,-0.6889595847606659,-0.8951686783090234
1682095750343770600,13.2197705078125,0.3937468774396926,-0.7776490910828113,-0.8833148666471242
1682095750363899400,13.2398994140625,0.5169271207761019,-0.69130176397264,-0.6806622965365647
1682095750384027400,13.26002734375,0.606772299939394,-0.6191290926873684,-0.6730018449112772
1682095750404155400,13.2801552734375,0.44274259821176526,-0.6981377474725246,-0.6830038912266493
1682095750424284400,13.300284423828124,0.0882091023940593,-0.9099310708940028,-0.47349955552518364
1682095750444412400,13.320412353515625,0.04285246877670288,-1.007390743649006,-0.5472329002559184
1682095750464541400,13.34054150390625,0.10576229474134742,-1.0846347268491983,-0.7677192332208156
1682095750484669400,13.36066943359375,0.19396372528560457,-1.0174690700709819,-0.9846724236235022
1682095750504798500,13.380798583984374,0.2259341500420123,-0.639691403722763,-1.2608143005758523
1682095750524926500,13.400926513671875,-0.025880802644416688,-0.5723948140412569,-1.2490487517192959
1682095750545055500,13.421055419921874,-0.13900032828077674,-0.6101578507244586,-1.2349331326052546
1682095750565183500,13.44118359375,-0.05813537810444831,-0.674751611188054,-1.3157169803693889
1682095750585311500,13.4613115234375,-0.059300330230593674,-0.6386667368501424,-1.427710497650504
1682095750605440300,13.481440185546875,0.018656185153126715,-0.09761340201199054,-1.3091831946864723
1682095750625568500,13.501568603515626,-0.21527130173034964,0.10848492463827132,-0.8976192863315343
1682095750645697300,13.521697265625,-0.24414069173149763,0.47851066168546674,-0.8287979713007807
1682095750665825300,13.5418251953125,-0.25972937907278537,0.7298556587725877,-0.6512976703643798
1682095750685953300,13.561953369140625,-0.3405816158980131,0.5928460659176111,-0.8322995496809482
1682095750706082300,13.582082275390626,-0.27358079429268833,0.48685704974830146,-0.563629031522572
1682095750726210300,13.602210205078125,-0.3912625863432884,0.3914987331867218,-0.0904126768529415
1682095750746339600,13.622339599609376,-0.7129553773760795,0.32874095597863195,0.08711655791699886
1682095750766467300,13.64246728515625,-0.8979051906008273,-0.09519991112947464,-0.0818248812496662
1682095750786596600,13.6625966796875,-0.5499322223424912,-0.3838169465124607,-0.5301467408984899
1682095750806724600,13.682724609375,-0.16206271250359713,-0.5293757565259933,-0.47820671030282974
1682095750826853600,13.702853515625,0.21609438161626457,-0.4101291993767023,-0.31537937010228634
1682095750846981600,13.722981689453125,0.28192141020186245,-0.3690279581815004,-0.010748773029446601
1682095750867109600,13.743109619140625,0.10666647703945636,-0.3664841189175844,0.15249299319088458
1682095750887238400,13.76323828125,-0.05421265170276165,-0.23449323100745675,0.28191958357095714
1682095750907366400,13.783366455078125,-0.013700024050474166,0.07866495591402053,0.41913375908732414
1682095750927495400,13.803495361328125,0.015668693774938583,0.48556408732831474,0.40123219169378277
1682095750947623400,13.82362353515625,0.11622304460965097,0.7505991715937852,0.5065039995044469
1682095750967752400,13.84375244140625,0.5054739258043468,0.9557458966076373,0.7607850500434636
1682095750987880400,13.86388037109375,0.7249228785455226,1.0207675270944834,1.0444774885058403
1682095751008008400,13.884008544921874,0.636686961209774,0.8570248256146907,1.24474228669703
1682095751028137500,13.904137451171875,0.2541391578502953,0.6803373023658991,0.8044225317180156
1682095751048265500,13.924265380859374,-0.17152093426585197,0.4975017778813839,0.8049579537689685
1682095751068394500,13.94439453125,-0.5455192282058299,0.333104996407032,0.9602800329059362
1682095751088522800,13.964522705078124,-0.6197399180620908,0.17271920413970945,0.8211568088978528
1682095751108651800,13.98465185546875,-0.6409422075014561,0.05426584319472313,0.6441577354818582
1682095751128779800,14.00477978515625,-0.5976677869856357,-0.04971183315217495,0.5101122531294823
1682095751148907800,14.02490771484375,-0.5201555082380771,-0.14068740458488463,0.6022779111295938
1682095751169036800,14.045036865234374,-0.10203406799845396,0.10022329224944114,0.7666326070278883
1682095751189164800,14.065164794921875,0.16091244648993014,0.3815758895874023,0.7501783158332109
1682095751209293800,14.0852939453125,0.03896130655705929,0.5119657720416784,0.7598626745015382
1682095751229421800,14.105421875,-0.06985971816778183,0.5208616106808185,0.6454957060873509
1682095751249550800,14.12555078125,0.028264629041031,0.41119712086915966,0.688642189374566
1682095751269678800,14.145678955078125,0.17094152694270015,0.3836503577739,0.7530868967562914
1682095751289806800,14.165806884765624,0.1904121702838689,0.18677695558667182,0.5317921700179576
1682095751309935900,14.185935791015625,0.16159589870944618,0.0173585465580225,0.3212666745752096
1682095751330064000,14.20606396484375,0.21615108023956417,-0.12401917837858199,0.31552550057470796
1682095751350193000,14.22619287109375,0.584661078961566,-0.1312736795514822,0.4431792360633611
1682095751370321000,14.24632080078125,0.8608816471733153,-0.08465981241464614,0.4682733453094959
1682095751390449700,14.26644970703125,0.8046328134678303,0.020204583638906478,0.4679851760178804
1682095751410577700,14.28657763671875,0.4196171586900949,0.27421441602110863,0.5100058701455593
1682095751430705700,14.30670556640625,-0.2234772584091872,0.5878448966294527,0.5944523320704698
1682095751450834700,14.326834716796874,-0.7788239800810813,0.5905477258473635,0.5727852746635675
1682095751470962700,14.346962646484375,-0.8169926749557256,0.5452700757503509,0.3735071494221687
1682095751491091700,14.367091796875,-0.5287386276662349,0.3530734332025051,0.38126083228886126
1682095751511219700,14.3872197265625,-0.2879096177659929,0.10132394696772098,0.3139280022501945
1682095751531348700,14.4073486328125,-0.24094985980093478,-0.10282266109287738,0.07917465900182724
1682095751551476700,14.427476806640625,-0.3533791381508112,-0.3104845837980509,-0.1659387502193451
1682095751571604700,14.447604736328126,-0.4051080102138221,-0.4853881462395191,-0.14369418518543242
1682095751591733800,14.467733642578125,-0.08732866629771888,-0.4443482798427343,-0.33059681297838683
1682095751611861800,14.48786181640625,0.2581132491130382,-0.25554244877696036,-0.5694307035386562
1682095751631990800,14.50799072265625,0.34957806536741554,0.1972346367150545,-0.8957453091531992
1682095751652118800,14.528118896484376,0.2508581634182483,0.6868792713552713,-0.9437801490038633
1682095751672247800,14.548247802734375,-0.1957136376928538,0.9975766211211681,-0.49975861689746376
1682095751692375800,14.568375732421876,-0.7869931849461048,1.0938462073087691,-0.00953062941133976
1682095751712503600,14.588503662109375,-1.1155576883792877,0.94283497710824,0.25925708538591863
1682095751732632800,14.6086328125,-1.0830448273092508,0.3686877664417028,0.0533867222726345
1682095751752760800,14.6287607421875,-0.5514017103731632,-0.45076808375716204,-0.19860650959014892
1682095751772889900,14.648889892578126,0.28164953445792196,-0.6455085655689239,0.053391982969641684
1682095751793017900,14.669017822265625,0.8302185786884277,-0.13455284735262393,0.34098435148000716
1682095751813147000,14.68914697265625,0.681463676047325,-0.2460416299819946,0.3180903826266527
1682095751833275000,14.70927490234375,0.4894816260982304,-0.6871849763035773,0.24411504583358762
1682095751853403000,14.72940283203125,0.8804699986100196,-0.944446503958106,0.09436579839289187
1682095751873532000,14.749531982421875,1.086132856452465,-0.5830787051409483,0.19261632926464078
1682095751893660000,14.769659912109375,1.006428036096692,0.04395253897309303,0.34521219830811023
1682095751913788700,14.78978857421875,0.5334989739358424,0.09722235686779021,0.570745877790451
1682095751933917000,14.8099169921875,0.04073302893731743,-0.04627016826570034,0.7326704239323735
1682095751954045700,14.830045654296875,-0.27318386739697303,-0.2986316489189863,0.7888570060566067
1682095751974173700,14.850173583984375,-0.29640520504117013,-0.2307277409940958,0.7670391420021653
1682095751994302700,14.870302734375,-0.2409574220528826,-0.060790276527404784,0.6074532679408788
1682095752014430700,14.8904306640625,-0.13600593223776666,-0.05704524478018284,0.24721505767554044
1682095752034558700,14.910558837890624,-0.0074024582762271165,-0.42649113611280914,-0.23910540097802876
1682095752054687700,14.930687744140625,0.4899557464160025,-0.2929986114680767,-0.6061451079517602
1682095752074815700,14.950815673828124,0.9128918203957378,0.028536358654499053,-0.6235469091296195
1682095752094944300,14.9709443359375,0.7645078699588775,0.2557669051826,-0.6495087411209941
1682095752115072300,14.991072265625,0.04422602215223014,0.2696031228333711,-0.5667673295482992
1682095752135201300,15.011201171875,-0.544891305565834,-0.010749357551336288,-0.39501375557035207
1682095752155329300,15.031329345703124,-0.6655459759473801,-0.4161503593623638,-0.27315292426943777
1682095752175457300,15.051457275390625,-0.3749772219747305,-0.6980319490104914,-0.34789369247704743
1682095752195586300,15.07158642578125,0.08488309977650642,-0.7862181819856167,-0.3992924558028578
1682095752215714300,15.09171435546875,0.3401105277875438,-0.8049497704625129,-0.2471945994094014
1682095752235843000,15.111843017578124,0.4618383803585544,-0.8400485563725233,-0.32153584690541026
1682095752255971000,15.13197119140625,0.42391171407885847,-0.8811281702578068,-0.5239832498326897
1682095752276100000,15.15210009765625,0.38679917719364165,-0.9805500829964876,-0.7157026302576065
1682095752296228000,15.17222802734375,0.4038846789639443,-1.2375099973559378,-0.9196756353169679
1682095752316356000,15.192356201171876,0.3728284464430064,-1.2404717697709797,-1.0643100239619612
1682095752336485000,15.212485107421875,0.27915654859840866,-0.8448165014266967,-0.9556398058846592
1682095752356613000,15.232613037109376,0.13920622611641884,-0.37360944075286384,-0.9524673133283853
1682095752376742100,15.2527421875,-0.09750351189672947,-0.4873416183948517,-0.8994111381843686
1682095752396870100,15.2728701171875,-0.1489016541680321,-0.5193137967169285,-0.9425283953770994
1682095752416999200,15.292999267578125,-0.09553542669415474,-0.34067923105359077,-0.8366463467136025
1682095752437127200,15.313127197265626,-0.14057634542584418,0.09428454985022544,-1.0242471859037876
1682095752457255200,15.333255126953125,-0.2786187519272789,0.20475275726020334,-1.0303533938243985
1682095752477384200,15.35338427734375,-0.3062193275690079,0.02627601250708103,-0.5370251022353768
1682095752497512200,15.37351220703125,0.006125716338679194,0.18006956690251827,-0.3396089714735746
1682095752517641000,15.393640869140626,0.27071729462035,0.3641314183115959,-0.23548984082937238
1682095752537769000,15.41376904296875,0.33601766898334023,0.875821880543232,-0.6859019507557154
1682095752557898000,15.43389794921875,-0.1789133826047182,0.864995366102457,-0.7075491344183683
1682095752578026000,15.45402587890625,-0.7175391980350017,0.38409810154139995,-0.36825522024333474
1682095752598154000,15.474154052734375,-0.6236391905229538,-0.21595219666659832,-0.3434185928896069
1682095752618283300,15.494283203125,-0.2657096225261688,-0.5745932008683681,-0.024168226572871206
1682095752638411000,15.514410888671875,0.006314589974284171,-0.6001771394580603,0.03936550344377756
1682095752658540300,15.534540283203125,-0.1467225930958986,-0.5300280829548836,-0.11215542984455823
1682095752678668300,15.554668212890626,-0.5261626396983862,-0.6512877334922552,-0.02840484122931957
1682095752698797300,15.57479736328125,-0.5018137227963656,-0.4468319133520126,0.04885638536661863
1682095752718925300,15.59492529296875,-0.3691892862230539,-0.22946926536560058,0.39293490346968174
1682095752739053300,15.61505322265625,0.0013351210612803698,0.2904015807121992,0.3320937735378742
1682095752759182300,15.635182373046876,0.18008651803731918,0.5479080230385065,0.4154717294484377
1682095752779310300,15.655310302734375,0.0004839841246604919,0.5158353069514036,0.2339782672226429
1682095752799439000,15.675439208984375,-0.14203706562817095,0.7130594222724437,0.3480602812156081
1682095752819567000,15.695567138671874,-0.07735672285966574,0.7495406024515628,0.11292875230461358
1682095752839696100,15.715696044921875,0.06753090989403426,0.7987649443477391,0.04546352805793285
1682095752859824000,15.73582421875,0.2485398765385151,0.8302472933262586,0.16304185973405838
1682095752879952100,15.7559521484375,-0.04625679732747376,0.7233738955378533,0.3764706754028797
1682095752900081200,15.7760810546875,-0.5868593196582049,0.4760772970587015,0.45296471701860425
1682095752920209200,15.796209228515625,-0.900441284949705,0.1951046389490366,0.4721791205763817
1682095752940338200,15.816338134765624,-0.7605038950145244,0.19762451281547544,0.4364975663423538
1682095752960466200,15.836466064453125,-0.5306890310816467,0.4746709373921156,0.9968880543351173
1682095752980595200,15.85659521484375,-0.40515900974869723,0.42055882345438,1.5355594624727964
1682095753000723200,15.87672314453125,-0.377951342414692,0.2519032154917717,1.5201602332890032
1682095753020851200,15.896851318359374,-0.3353699456643313,-0.23528292008042334,1.2456108862251043
1682095753040980200,15.916980224609375,-0.0930786081265658,-0.10979600723683833,0.7799328181058168
1682095753061108200,15.937108154296874,0.1692008938204497,0.19226152447760103,0.655784460389614
1682095753081237000,15.957237060546875,0.3008499094903469,0.24040625444352626,0.696741909199953
1682095753101365500,15.977365478515624,0.34689620587229725,0.273463889914751,0.7156810029476881
1682095753121494500,15.99749462890625,0.19735738631188868,-0.005436053574085236,0.6494388907551765
1682095753141622500,16.01762255859375,-0.033676571087166665,-0.12344459336102008,0.5571130737572908
1682095753161750500,16.03775048828125,-0.09608546179234981,-0.13584054907560347,0.39737376269996166
1682095753181879600,16.057879638671874,-0.00554302107989788,-0.01740413926541805,0.48795478185713287
1682095753202007600,16.078007568359375,-0.00909223799407482,0.1027174471527338,0.5381669657468795
1682095753222136600,16.098136474609376,-0.08757073142528533,0.05041559750735759,0.3726759592950344
1682095753242264600,16.1182646484375,-0.10895951988007872,0.03021101386845112,0.23043314196169376
1682095753262393600,16.1383935546875,-0.1745698735076934,-0.12368600090146065,0.16887538819313047
1682095753282521600,16.158521484375,-0.14191957672834396,-0.13366437408030032,-0.05788461821377277
1682095753302649600,16.178649658203124,-0.09935005307886749,0.05040449159145355,-0.13466039938032626
1682095753322778400,16.1987783203125,0.03550970479846,-0.12632044105827808,-0.36497897505164145
1682095753342906400,16.21890625,0.25700258445739743,-0.24786241566836834,-0.4926023154020309
1682095753363035400,16.239035400390627,-0.02046882406566292,-0.34370705444216726,-0.21610534140169618
1682095753383163400,16.259163330078124,-0.16823592124581335,-0.21915362305641173,-0.33214930311739443
1682095753403292400,16.27929248046875,-0.0814373067041859,0.04730126487910747,-0.5033721312195062
1682095753423420400,16.29942041015625,0.25928459444735197,0.1648269895851612,-0.42410336419343947
1682095753443548400,16.31954833984375,0.5114765637526288,0.43993689314126966,-0.38242929154634475
1682095753463677700,16.339677734375,0.463170469212532,0.9090998807668685,-0.25680150892734527
1682095753483805400,16.359805419921877,-0.0920709471876733,1.3319342479377985,-0.07481354118287563
1682095753503934700,16.379934814453126,-0.7600269251525401,1.1976146248191595,0.048153497794270514
1682095753524062700,16.400062744140627,-0.7964671887993812,0.5019213478893041,0.5072048412501812
1682095753544191500,16.42019140625,-0.49347676014900205,-0.00997545056939125,0.8993255057275295
1682095753564319500,16.440319580078125,-0.40119185968339444,-0.34221593910157677,0.6470517033576965
1682095753584448500,16.460448486328126,-0.36617139970660206,-0.36694647573232647,0.044589667832851405
1682095753604576500,16.480576416015627,-0.1207599208543077,-0.5207809466600418,-0.1238794776469469
1682095753624704500,16.50070458984375,0.5629793354421854,-0.2163660381644964,-0.020000000977516173
1682095753644833500,16.52083349609375,0.9264286167085171,0.3647849137842655,0.2709416779607534
1682095753664961500,16.54096142578125,0.651860564944148,0.6399971086710691,0.5196358682781458
1682095753685090600,16.561090576171875,0.09339428647961467,0.31861995945870875,0.48605479345470665
1682095753705218600,16.581218505859376,-0.2810965584839694,-0.20481062492728233,0.37463410762548444
1682095753725347600,16.60134765625,-0.3205956434458494,-0.42349370786249635,0.722022188667953
1682095753745475600,16.6214755859375,-0.3198468709051609,-0.28564591061770916,0.8687903744712472
1682095753765604600,16.6416044921875,-0.4045815021216869,-0.19254326402842997,0.805820708078146
1682095753785732600,16.661732666015624,-0.3674350994994864,-0.35881694529056546,0.6138137428835034
1682095753805860600,16.681860595703125,0.4093652292668819,-0.33506197569370266,0.546815843887627
1682095753825989400,16.7019892578125,1.0181535452038049,-0.14529109898805617,0.5882926403969526
1682095753846117400,16.722117431640626,1.1277250960350036,0.23059622356891632,0.5985676584348082
1682095753866246400,16.742246337890624,0.5816314654747023,0.5501332978725433,0.4414110573470592
1682095753886374400,16.76237451171875,-0.23519871239569037,0.5761182184785604,0.47491029910594224
1682095753906503400,16.78250341796875,-0.4669096557408571,0.18089023563563822,0.5517591455087065
1682095753926631400,16.80263134765625,-0.3401800493597984,-0.16549918975830077,0.4305348585456609
1682095753946759400,16.822759521484375,-0.12336800272716208,-0.2594359490841627,0.3481871224656701
1682095753966888400,16.842888427734376,-0.01341530709126964,-0.17081541634500025,0.33875293916612864
1682095753987016400,16.863016357421873,-0.12231471254825592,-0.2816553796768188,0.09630670332759618
1682095754007145700,16.883145751953126,-0.08693709143055603,-0.4728875611066818,-0.017002864988148212
1682095754027273500,16.9032734375,0.23896073181033134,-0.5854653080165386,-0.10768588321506976
1682095754047402500,16.923402587890624,0.4857721771210432,-0.4713309793144464,-0.22827742523252964
1682095754067530800,16.94353076171875,0.5067875291535631,-0.46551206390261646,-0.4192828121691942
1682095754087658800,16.96365869140625,0.2532662840059027,-0.35736148578524585,-0.7639367920726537
1682095754107787500,16.98378759765625,-0.20311551144719123,-0.49538463959693907,-0.497578057987988
1682095754127915500,17.00391552734375,-0.23805008323881774,-0.4890647889256477,-0.6847095261007548
1682095754148044500,17.02404443359375,-0.012557283756136893,-0.6254723242342471,-0.952210415957868
1682095754168172500,17.044172607421874,0.15339491046667098,-0.573690699070692,-0.8279454461246728
1682095754188301600,17.064301513671875,0.41818807573504746,-0.6825584855467081,-0.6416331854403019
1682095754208429600,17.0844296875,0.6161462774842977,-0.7253764675319194,-0.6360132997319102
1682095754228557600,17.1045576171875,0.849381617385149,-0.6244651930183172,-0.7302958037555217
1682095754248686600,17.1246865234375,0.8758025913208722,-0.4613321478694677,-0.8167571126341819
1682095754268814600,17.144814697265623,0.760187668672204,-0.5002303260624409,-0.9033388330221176
1682095754288943600,17.164943603515624,0.5955587589424103,-0.6240694716989994,-0.9156853966370224
1682095754309071600,17.185071533203125,0.4488327317804098,-0.3223527162462473,-0.7763274870902299
1682095754329200400,17.205200439453126,0.24145254862606524,-0.048825697967410084,-0.611212912735343
1682095754349328600,17.22532861328125,0.021080708886310456,-0.1713888323187828,-0.7926473382502793
1682095754369457400,17.24545751953125,-0.07781571867354213,-0.20536241359114646,-1.1100488618299365
1682095754389585400,17.26558544921875,-0.2235732661295682,-0.19605214893221853,-0.9193775291532278
1682095754409713400,17.28571337890625,-0.3522755608230829,-0.02605564775466919,-0.5593269504144788
1682095754429842400,17.305842529296875,-0.34619521799609065,0.33731180044710635,-0.8407818390831351
1682095754449970400,17.325970458984376,-0.15546945171840487,0.41526422417759895,-0.9506427282497286
1682095754470099700,17.346099609375,0.026201778227090834,0.4347808255523443,-0.8585285081759094
1682095754490227500,17.3662275390625,0.13837328242361543,0.5792752212047576,-0.7165238835126161
1682095754510356700,17.386356689453127,-0.17448387572467325,0.17929098374545574,-0.45130379806905985
1682095754530484700,17.406484619140624,-0.5434240825574844,-0.3660053954899311,-0.36634061879366636
1682095754550612700,17.42661279296875,-0.6644342153131961,-0.8225771970897913,-0.3016138796001673
1682095754570741800,17.44674169921875,-0.5044616800218821,-0.9198474847525357,-0.38007659094035623
1682095754590869800,17.466869873046875,-0.05199073786959052,-0.7135299623936414,-0.5210726230829954
1682095754610998500,17.48699853515625,0.29398879154920576,-0.23350538901388643,-0.6086021457150578
1682095754631126500,17.50712646484375,0.1644961501955986,-0.00362637380361557,-0.2738713016718626
1682095754651255600,17.527255615234374,-0.27992870201468467,0.05871463929712772,0.1899073625668883
1682095754671383600,17.547383544921875,-0.6843043793659657,0.037303602477908135,0.45309886479228734
1682095754691512600,17.5675126953125,-0.6487585072755814,0.5447030895173549,0.44705286262631416
1682095754711640600,17.587640625,-0.5951373917251825,0.9868886383682489,0.700483141554892
1682095754731768600,17.6077685546875,-0.57183652257137,1.1591057382047176,0.9772656544983387
1682095754751897600,17.627897705078126,-0.5286713345836848,1.0569693058103322,1.1850532494097947
1682095754772025600,17.648025634765624,-0.49036118541173634,0.7926017455428839,1.045645363241434
1682095754792154600,17.668154541015625,-0.35964397069923576,0.7171072363585234,0.9058838413298129
1682095754812282600,17.68828271484375,-0.21065708593316376,0.7129647297263145,0.7276888361275196
1682095754832411600,17.70841162109375,-0.1379470929007977,0.46966509192883965,0.9227344383656978
1682095754852539600,17.72853955078125,-0.022383681243658065,0.2938713026493788,1.0486620807141065
1682095754872668400,17.74866845703125,0.12391805609166621,0.41626141852140425,0.5513543641000985
1682095754892796400,17.76879638671875,0.17901216680407522,0.3551572537392378,0.20647709683477877
1682095754912924400,17.78892431640625,-0.10777874913029373,0.29371815791428085,0.23777239880859852
1682095754933053400,17.809053466796875,-0.08902852901816367,0.26051380744874475,0.5384720861732959
1682095754953181400,17.829181396484376,-0.5727781873356551,0.18900339946448802,1.098434119620919
1682095754973310500,17.849310546875,-0.836917199544236,0.20268004263937472,1.0005880778968335
1682095754993438500,17.8694384765625,-0.6904027693063021,0.11925824758708477,0.8136831120163202
1682095755013567700,17.889567626953124,-0.11104286549277603,-0.0580488688647747,0.6957078899770974
1682095755033695500,17.909695556640624,0.459974376584962,-0.10715630638301372,0.9468675936251878
1682095755053823500,17.929823486328125,0.6249666397344321,-0.11170330216288565,0.8524521108716726
1682095755073952800,17.949952880859374,0.5027355868816376,0.06757423757910729,0.4222106823146343
1682095755094080500,17.97008056640625,0.22944478851146996,-0.062218263503909105,0.39368659861981864
1682095755114209500,17.99020947265625,0.19985680191218852,-0.09978723891973496,0.3001268559128046
1682095755134337500,18.010337646484373,0.4152297373861074,-0.1624520771473646,0.31614041760265826
1682095755154466600,18.030466552734374,0.5905968256860971,-0.10443652603030204,0.36929333111941814
1682095755174594600,18.050594482421875,0.6604816782951355,0.035303368571400644,0.23169220211207867
1682095755194723600,18.0707236328125,0.45554830377101896,0.11030395675897597,0.2174725381016731
1682095755214851600,18.0908515625,0.08411628012247382,0.10743278523683547,0.28096622836887836
1682095755234979600,18.1109794921875,-0.14191139342188835,0.19758242723941802,0.3616711656779051
1682095755255108600,18.131108642578123,-0.1904809977363795,0.5093921221613884,0.45902503997087474
1682095755275236600,18.151236572265624,-0.39916528575923294,0.42675417096316814,0.7932265994429588
1682095755295365600,18.17136572265625,-0.5991693506550043,0.28332711228132246,0.781428025099635
1682095755315493600,18.19149365234375,-0.5778553444694727,-0.06152735863029957,0.6278460676282643
1682095755335622700,18.21162255859375,-0.3101390582960099,0.008146481576561927,0.14177578434348106
1682095755355750700,18.231750732421876,0.10971424723751842,0.07674304794073104,-0.019810031363368032
1682095755375879400,18.25187939453125,0.34697928104586895,0.3109714905321598,-0.295894332909584
1682095755396007400,18.27200732421875,0.24977734591159967,0.47067222314476964,-0.4156096766144037
1682095755416135400,18.292135498046875,0.02186173972878605,0.646703912833333,-0.5312736991018057
1682095755436264400,18.312264404296876,-0.22632099393513053,0.5342787261366844,-0.1817985826522112
1682095755456392400,18.332392333984377,-0.40501521736383433,0.45809565016627307,0.21084961283057926
1682095755476521500,18.352521484375,-0.6252104584276675,0.16137363426089285,0.32980273999124765
1682095755496649500,18.3726494140625,-0.7648755342274903,-0.12053601243793964,0.0521972202271223
1682095755516778500,18.392778564453124,-0.6742354783594607,-0.05455108987689018,-0.17855039451122282
1682095755536906500,18.412906494140625,-0.43835634595155715,0.33760698400139805,-0.7558914327830075
1682095755557035500,18.433035400390626,0.09555298061715438,-0.09010755642652511,-0.7929182641461491
1682095755577163500,18.45316357421875,0.6249450854897499,-0.5360054037988186,-0.41729046930819746
1682095755597291500,18.47329150390625,0.638788901925087,-0.45636312728524203,0.0012906243324279784
1682095755617420500,18.493420654296877,-0.29438509739041324,-0.527930818414688,0.19331249483525753
1682095755637548500,18.513548583984374,-1.0741805528521537,-0.5923264259576797,0.04754384146332741
1682095755657677600,18.533677490234375,-1.1223726290911435,-0.7041857954651117,0.09143792824745178
1682095755677805300,18.553805419921876,-0.4781283843696117,-0.5556324798107147,0.48047933140993115
1682095755697934600,18.5739345703125,0.24549919366836545,-0.21273440366387367,0.6759335144490003
1682095755718062600,18.5940625,0.5089303498685359,-0.06490180349946022,0.796542007601261
1682095755738190600,18.614190673828126,0.39239312474317845,0.03163607823550701,0.4668012269303202
1682095755758319600,18.634319580078124,0.2062883327970281,-0.09289747940599918,-0.004246259267628193
1682095755778447600,18.654447509765625,0.42291623676810414,-0.32782325661182404,-0.17023469384759662
1682095755798576600,18.67457666015625,1.075731947012618,0.05422726475000381,-0.36872313001602885
1682095755818704600,18.69470458984375,1.0614239471316338,0.386418068921566,-0.37943069425225256
1682095755838833700,18.714833740234376,0.4121931461691856,0.3981009079307318,-0.2885162053570151
1682095755858961700,18.734961669921876,-0.2874743316212669,0.1663560988485813,-0.3771364458352327
1682095755879090400,18.75509033203125,-0.5936451073408127,-0.1372328802168369,-0.42013299925774333
1682095755899218400,18.775218505859375,-0.5380699351131916,-0.35741000110208987,-0.3480979828774929
1682095755919346700,18.7953466796875,-0.3452466485669836,-0.5557610746264458,-0.2374719545572996
1682095755939475500,18.815475341796876,-0.0626238851627335,-0.5713678090810775,-0.12903437619209288
1682095755959603500,18.835603515625,0.12213175719678401,-0.6796598414957523,0.07559095529615878
1682095755979732500,18.855732421875,0.3167389314850792,-0.7109732636481523,0.12712094378620387
1682095755999860500,18.875860595703124,0.4953688940385356,-0.7106283957332372,0.09150310243815184
1682095756019989500,18.895989501953125,0.6697685620784759,-0.639796033141017,0.14270546640902756
1682095756040117500,18.916117431640625,0.7376999425321817,-0.4516080417126417,0.15093115070164204
1682095756060246500,18.93624658203125,0.48684532277788967,-0.5849614501476288,0.11207739617228507
1682095756080374500,18.95637451171875,0.1065776662448421,-0.6933388227581977,-0.07148527354300022
1682095756100502300,18.976502197265624,-0.21496548718418926,-0.7560159359455109,-0.20711305665075777
1682095756120631300,18.99663134765625,-0.3936754561712965,-0.7812713732331991,-0.40106735652089115
1682095756140759300,19.01675927734375,-0.3933008507052436,-0.6544704551815986,-0.8412327977210283
1682095756160888300,19.036888427734375,-0.36788810396399346,-0.5286380899012089,-1.1284808828383683
1682095756181016300,19.057016357421876,-0.3418915294528007,-0.47634793069362635,-1.1941194761797784
1682095756201145000,19.07714501953125,-0.32704942269511517,-0.5449941814184188,-1.3245605042994022
1682095756221273000,19.097273193359374,-0.18258366861529648,-0.644365240752697,-1.28279787658602
1682095756241402000,19.117402099609375,-0.1343920307677239,-0.47309039020240307,-1.3373533503770827
1682095756261530000,19.137530029296876,-0.3366004007747397,-0.21840251242816447,-1.0358730340287088
1682095756281658000,19.157658203125,-0.42850839421935377,0.07882277682423591,-0.7855082801505923
1682095756301787100,19.177787109375,-0.5260631979119033,0.4369920718610286,-0.7939011377036571
1682095756321915100,19.1979150390625,-0.22641513849198816,0.6047364101976156,-0.6820026052296161
1682095756342044200,19.218044189453124,0.16284904057569802,0.5553402188658714,-0.5833262501612305
1682095756362172200,19.238172119140625,0.24797457080595195,0.44055940895378587,-0.3199292884916067
1682095756382301200,19.25830126953125,0.1099415531873703,0.4700292490661144,-0.1494412044048309
1682095756402429200,19.27842919921875,-0.29165077705569564,0.22167992666363714,-0.08757599212229251
1682095756422558200,19.29855810546875,-0.33478483925275504,-0.1355219846457243,-0.1281675302296877
1682095756442686200,19.318686279296877,-0.0684351652573794,-0.4879413378536701,-0.30845044762194157
1682095756462814200,19.338814208984374,0.35561434985697266,-0.5561813458651303,-0.7278332130342722
1682095756482943200,19.358943115234375,0.47667292486429214,-0.2800707408338785,-0.7958373664632439
1682095756503071200,19.3790712890625,0.12426942681260406,-0.2104670432537794,-0.44136341881304975
1682095756523200300,19.3992001953125,-0.2884971353303641,-0.3460053945124149,-0.12272972308993339
1682095756543328300,19.419328369140626,-0.602781184476614,-0.19522095880508422,0.26251930205225943
1682095756563457300,19.439457275390627,-0.6465642851669341,0.26492344058454037,0.31299189044386144
1682095756583585300,19.459585205078124,-0.6300437968682497,0.3968617215245962,0.1507137085586786
1682095756603713300,19.47971337890625,-0.7072608920615167,0.09928221200704573,-0.3115747171223163
1682095756623842300,19.49984228515625,-0.3323953868329525,0.22879881875813007,0.11872048744857311
1682095756643970300,19.51997021484375,0.08076930778212844,0.510908956465125,0.7212474049031734
1682095756664099300,19.540099365234376,0.0294399564307183,1.3400468272447585,0.716363724514842
1682095756684227300,19.560227294921877,-0.9436492161005735,1.64916889051795,1.038607135167718
1682095756704356000,19.580356201171874,-1.6555261505901813,0.7579612247943878,0.8118360228449105
1682095756724484000,19.600484130859375,-1.3430173674881458,0.22118016044795513,0.46433483681678767
1682095756744613000,19.620613037109376,-0.9452379465967417,0.043021980124711985,0.9322779272586107
1682095756764741000,19.6407412109375,-0.5311175952246412,0.24049860890209673,1.4222119002342224
1682095756784869000,19.660869140625,-0.09589549217820167,0.6269587633997201,1.7597358821272848
1682095756804998100,19.680998046875,0.30228958690464497,1.207688275066018,1.204911211568117
1682095756825126100,19.701126220703124,0.42846163246817887,0.7772960398614406,1.0038017792463303
1682095756845255200,19.721255126953125,0.6029285570580512,0.3791068691253662,0.8560457514494657
1682095756865383200,19.741383056640625,0.6532675821978599,0.15117781893908977,0.9540157118141651
1682095756885512200,19.76151220703125,0.34316235310621557,0.1942109049797058,1.14494569542706
1682095756905640200,19.78164013671875,-0.05504208826422691,0.38359658176004885,1.1437006638020277
1682095756925769200,19.801769287109376,-0.3600538666743785,0.33368601116538044,0.623029607257247
1682095756945897200,19.821897216796874,-0.023453429367020724,0.2737444604218006,0.09463993915915489
1682095756966025200,19.842025146484374,0.3459048567473888,0.38328386254906655,0.15490297694206237
1682095756986154200,19.862154296875,0.35933263972774143,0.3234060246914625,0.509527146717906
1682095757006282000,19.882281982421876,0.3545943591594696,0.14786767147779464,0.7279132925331592
1682095757026411300,19.902411376953125,0.2950906883765012,0.05400689999759197,0.8785884226471186
1682095757046539300,19.922539306640626,0.02978080575764179,0.10419394944608211,0.931544352287054
1682095757066668300,19.942668212890624,-0.18026523560509083,0.16771745032966137,0.9705763859927654
1682095757086796300,19.96279638671875,-0.06384425727054477,0.33707156195044513,0.8869196131408214
1682095757106925000,19.982925048828125,0.11464812344312666,0.3781558520108461,0.729306792718172
1682095757127053000,20.003052978515626,0.2846282580077648,0.4754845918625593,0.5757768576949834
1682095757147181000,20.02318115234375,0.23180486870631575,0.49225043322443957,0.40508126833736896
1682095757167310000,20.04331005859375,0.06115976742692291,0.5043745862603187,0.4991261642128229
1682095757187438000,20.06343798828125,-0.16411036574840546,0.35890170096457,0.6136854403287172
1682095757207567000,20.083567138671874,-0.3784925366193056,0.058113166272640224,0.5187848044067621
1682095757227695000,20.103695068359375,-0.3687888887286186,-0.1845423284024,0.190176534897089
1682095757247824000,20.123823974609376,-0.27909984997510906,-0.3785276079326868,0.05541501322984695
1682095757267951900,20.143951904296873,-0.08231354154944419,-0.11778759051263332,-0.6055588324964046
1682095757288081000,20.164080810546874,0.18655834439992905,0.43577626633048056,-0.6178069041728973
1682095757308209000,20.184208984375,0.11442366703748702,0.7859212448656558,-0.8038777573168278
1682095757328337000,20.2043369140625,0.20626440393216908,1.1546376528799533,-0.9047107058972119
1682095757348466000,20.2244658203125,0.03761515264511108,1.0798393092662095,-0.5057411984384059
1682095757368594000,20.244593994140626,-0.43919692496154455,0.8954811052590608,-0.1494593245834112
1682095757388723200,20.26472314453125,-0.8509270932614803,0.4135182572931051,-0.015368249523639677
1682095757408851200,20.284851318359376,-0.96642744961977,0.04714578205645084,-0.19230127196609972
1682095757428980200,20.304980224609373,-0.7514888139098882,-0.2040618523865938,-0.06406359910964965
1682095757449108200,20.325108154296874,-0.6801578541457652,-0.6870750861883163,0.1168558626204729
1682095757469237000,20.345237060546875,-0.15803128329673782,-0.7736638208389282,0.060119245398044585
1682095757489365000,20.365364990234376,0.391300580266118,-1.0281137982040642,0.2624853997826576
1682095757509493000,20.385492919921877,0.6606833383470774,-1.0389210234224795,0.15991759023368357
1682095757529622000,20.4056220703125,0.7431506091535091,-0.740211633092165,0.0037497079223394393
1682095757549750000,20.42575,0.6102677408397197,-0.5519394705116748,-0.28936697696745395
1682095757569879000,20.445879150390624,0.5373123947441577,-0.20958149259090422,-0.018671382722258566
1682095757590007000,20.466007080078125,0.3442688165107742,0.27363223221898075,0.23927052841186522
1682095757610136000,20.486135986328126,0.03397120665218681,0.5291361025512218,0.4196744418352842
1682095757630264000,20.50626416015625,-0.413016737511754,0.48405543633103365,0.5167956764161586
1682095757650393000,20.52639306640625,-0.7078910797238349,0.5315209518611431,0.5535632723212242
1682095757670521000,20.54652099609375,-0.889469882145524,0.3475350882977247,0.5911363393902779
1682095757690650000,20.566650146484374,-0.5067179345160723,0.36849195160865783,0.3583639408260584
1682095757710778000,20.586778076171875,0.1897317137390375,0.3447603628873825,0.03730710960924625
1682095757730906000,20.606906005859376,0.5810638581871986,0.20787644223868845,0.04937748663127422
1682095757751035000,20.627034912109377,0.6818307557940483,0.1962280900210142,0.05218319170176983
1682095757771163000,20.647162841796874,0.3579483092298731,-0.0788403124809265,0.06652502078711986
1682095757791292000,20.6672919921875,0.1846609863460064,-0.2796960623025894,0.2360346152305603
1682095757811420000,20.687419921875,0.4123632055064663,-0.2931891656041145,0.08974865998625754
1682095757831549000,20.707548828125,0.4248726315328851,-0.5857154833853244,0.05356500144898891
1682095757851677000,20.727677001953126,0.601749466808699,-0.36772330532371994,0.622163930338621
1682095757871805000,20.747804931640626,0.46788759739492086,-0.0926695158690214,1.030486372554302
1682095757891934000,20.767933837890624,0.11154431220889091,-0.055310383811593054,1.0655050789654255
1682095757912062000,20.78806201171875,-0.16875497668385506,-0.19100071076154707,0.752598820978403
1682095757932191200,20.808191162109374,-0.1423702065726742,-0.3706149351119995,0.224736976146698
1682095757952319200,20.8283193359375,0.17189090008940547,-0.5091705883651971,-0.21582477089464663
1682095757972448000,20.848447998046876,0.44374099813196805,-0.5981102700561285,-0.36971418687999247
1682095757992576000,20.868575927734376,0.6647708999216556,-0.6444985117435454,-0.31598435025811195
1682095758012705000,20.888705078125,0.5199649906346574,-0.5331780714184046,-0.4471840877905488
1682095758032833000,20.9088330078125,0.06274842485785484,-0.530383472263813,-0.6585983487665653
1682095758052962000,20.928962158203124,-0.2925216233397834,-0.7697691514879464,-1.2723492555469273
1682095758073090000,20.949090087890625,-0.1689075186307542,-1.1814946801453827,-1.7284581158101557
1682095758093218000,20.969218017578125,0.30081894809650256,-0.7485124284476041,-1.2043225980252026
1682095758113347600,20.98934765625,0.4059393464714289,-0.31831483903229235,-0.5438888505250216
1682095758133475600,21.0094755859375,0.11035128476573154,-0.08746551748514175,-0.36846184873133897
1682095758153604600,21.0296044921875,-0.47818391394913196,-0.07424129425287246,-0.3895180807635188
1682095758173732600,21.049732666015625,-0.8986264175474643,-0.3904612068325281,-0.6303799700200557
1682095758193861400,21.069861328125,-0.7100625785440207,-0.6708779846251011,-1.0174088643163441
1682095758213989400,21.0899892578125,-0.2717757906973362,-0.9446358890503644,-1.3037632154643535
1682095758234118400,21.110118408203125,0.17391922757923603,-0.7801374007672071,-1.262092649948597
1682095758254246400,21.130246337890625,0.30407824215339496,-0.7323410458475351,-1.2404197473227978
1682095758274374400,21.15037451171875,0.0032277298748493192,-0.6323141529530286,-1.027009928615391
1682095758294503400,21.17050341796875,-0.2192991324743256,-0.573692452636361,-0.9471306284755467
1682095758314631400,21.19063134765625,-0.09849080590102821,-0.38969723672270773,-1.094454402334988
1682095758334760400,21.210760498046874,0.308052388215065,0.42632104024291034,-1.1061448401287197
1682095758354888400,21.230888427734374,0.24040216279029844,0.738988228777051,-0.9705196873694658
1682095758375017700,21.251017822265624,-0.3444224727025255,0.8720330096542834,-0.5171840912118554
1682095758395145500,21.2711455078125,-1.035934116566181,0.6180325296223164,-0.11564181065559387
1682095758415274500,21.2912744140625,-1.2495903112500906,0.08396306232213974,0.003344634252786636
1682095758435402800,21.31140283203125,-0.9181196380466222,-0.3909709099203348,-0.04601210185140371
1682095758455530800,21.33153076171875,-0.24947916668262332,-0.5820628060966729,-0.19309914434552192
1682095758475659500,21.351659423828124,0.172734986230731,-0.5729734907120466,-0.12760989634692668
1682095758495787500,21.37178759765625,0.05137772053778171,-0.5066033682256936,-0.05430968233644962
1682095758515916500,21.39191650390625,-0.20283435641825198,-0.538942041772604,-0.12047405311763286
1682095758536044500,21.41204443359375,-0.33947738098315894,-0.5473515581995249,-0.10218319414556026
1682095758556173600,21.432173583984376,-0.2761841817241162,-0.46764966045320033,-0.024563363370299338
1682095758576301600,21.452301513671873,-0.07557860727123916,-0.2226888114452362,0.13729308597147463
1682095758596430600,21.4724306640625,0.11228438998647033,0.16504793885946273,0.2234545351207256
1682095758616558600,21.49255859375,0.21813012522757053,0.6594763006448745,0.06472235527932643
1682095758636686600,21.5126865234375,0.12857435746490956,0.9367688089370727,0.07320961311757564
1682095758656815600,21.532815673828125,-0.05699552388694137,1.0246014061689377,0.21337913130819797
1682095758676943600,21.552943603515626,-0.27601938308384266,0.9878986921936272,0.5154366630226374
1682095758697072400,21.573072265625,-0.4550678267776966,1.1885492748320101,0.6584481266409158
1682095758717200600,21.59320068359375,-0.7405576700508594,0.7853244480162859,0.7941682642072438
1682095758737329400,21.613329345703125,-0.7656173655707389,0.3564315114587545,0.5291577298611402
1682095758757457400,21.63345751953125,-0.5963350770771503,0.0007943652480840683,0.5391787731379271
1682095758777586400,21.65358642578125,-0.42282391884215176,-0.15490239242017267,0.908250570461154
1682095758797714400,21.67371435546875,-0.16644494617581365,0.17188626044690608,1.021432128483057
1682095758817842400,21.693842529296877,-0.06952946330010891,0.1532411812096834,1.1334148321092128
1682095758837971500,21.713971435546874,0.09224697960801422,0.063007368054986,1.0724889465034007
1682095758858099500,21.734099365234375,0.33301972927637397,0.04424187730848789,1.2674684977680444
1682095758878228500,21.754228515625,0.4260159928817302,0.37285131586194037,1.6657962001919746
1682095758898356500,21.7743564453125,0.10283150198645889,0.9147861097097396,1.4333698385864495
1682095758918485800,21.79448583984375,-0.3210761204391718,0.44594519364535806,1.2043851418673992
1682095758938613500,21.814613525390627,-0.0617733692806214,0.16312895349562168,0.6013742402881384
1682095758958742500,21.834742431640624,0.3344060690682381,0.028930910930037496,0.5368225654006004
1682095758978870500,21.85487060546875,0.7200655747074634,0.11152443846464156,0.603232435375452
1682095758998998500,21.87499853515625,0.8964350449830293,0.27858313262462614,0.5820826798409223
1682095759019127600,21.89512744140625,0.7432967396259308,0.4767430674910545,0.6259416953116655
1682095759039255600,21.915255615234376,0.3757259214501828,0.47456221632063383,0.5195920291364192
1682095759059384600,21.935384521484377,-0.00899988353550434,0.34702421616613865,0.437864178520441
1682095759079512600,21.9555126953125,-0.19726331482026724,0.34868425833284855,0.35711131041646
1682095759099641000,21.97564111328125,-0.4272807886531576,0.3387871336966753,0.537418193206191
1682095759119769000,21.99576904296875,-0.6326835707873105,0.38946635057628154,0.47169922810494896
1682095759139898400,22.0158984375,-0.6944920844465494,0.4772089314371347,0.24893793594539165
1682095759160026400,22.0360263671875,-0.5402781857471913,0.40646307808458804,0.4027858508765697
1682095759180154000,22.056154052734374,-0.458317768484354,0.0782306561499834,0.20566811853945255
1682095759200283400,22.076283447265624,-0.2836971146374941,-0.03204348999261856,-0.23704233096837996
1682095759220411400,22.096411376953125,-0.11565348282707855,0.3736643858104944,-0.6343938818365336
1682095759240540200,22.1165400390625,-0.15352756040301174,0.7294301268368959,-0.89960432266891
1682095759260668200,22.136668212890626,-0.25256896765781567,0.8864894050300121,-0.762457367169857
1682095759280797200,22.156797119140624,-0.319615400236845,0.9123457308202981,-0.3137088065415621
1682095759300925200,22.17692529296875,-0.4762205049216747,0.7990443458110094,0.05183832378685474
1682095759321053200,22.19705322265625,-0.7171791325509548,0.3792085759341717,0.49006958205401896
1682095759341182200,22.21718212890625,-0.793753838187456,-0.22755846330821514,0.31827158441245557
1682095759361310200,22.237310302734375,-0.5738625485062598,-0.7740133649289608,-0.024842764833569526
1682095759381439200,22.257439208984376,-0.39185646058320994,-1.1869254730224608,-0.05648293472230434
1682095759401567200,22.277567138671873,0.39113399152755735,-0.8668477159708737,-0.042152796074748033
1682095759421696300,22.2976962890625,1.0938771869689226,-0.31174013681709767,0.16512568027079105
1682095759441824300,22.31782421875,1.4858885458528994,-0.010872107148170471,0.2942062336921692
1682095759461953300,22.337953369140624,1.2419663922429085,0.022583587729930875,0.16103870321810246
1682095759482081300,22.358081298828125,0.3093272304564714,-0.10075111551582813,-0.05314531473219394
1682095759502210000,22.3782099609375,-0.27471242867112156,0.13057049971818924,0.15453765076100826
1682095759522338000,22.398338134765623,-0.5278402175217867,0.2360597496718168,0.5111491949617862
1682095759542466000,22.418466064453124,-0.5482412005156279,0.0013999299257993697,0.5809639049440622
1682095759562595000,22.438594970703125,-0.5238754055440425,-0.4831429976612329,0.39645372524559497
1682095759582723000,22.45872314453125,-0.3045452568769455,-0.626621494269371,0.40410862391293045
1682095759602852000,22.47885205078125,0.09617488450831733,-0.5373614945828914,0.3512427106440067
1682095759622980000,22.49897998046875,0.5193465299427509,-0.14454349549114703,0.26924831804633137
1682095759643109000,22.519109130859373,0.6550467937648295,-0.08344342236220836,0.2574801388412714
1682095759663237000,22.539237060546874,0.7271212653726339,-0.009893617504835129,-0.04110182571709156
1682095759683366400,22.559366455078123,0.4320990391224622,0.3270832518994808,0.04612403779327869
1682095759703494400,22.579494384765624,-0.05945289044380188,0.7082856319993734,0.19211831661462783
1682095759723622100,22.5996220703125,-0.5058265386343002,0.8152356021553278,0.2303659219443798
1682095759743751200,22.619751220703126,-0.7808990327894687,0.3394587493479252,0.25727321809232234
1682095759763879400,22.63987939453125,-0.6188122818231582,-0.1927028385043144,0.3474363040983677
1682095759784008200,22.66000830078125,-0.12605975342863238,-0.3970762410581112,0.60030807236135
1682095759804136200,22.68013623046875,0.34423020153343675,-0.403870723503828,0.5770101988822222
1682095759824265200,22.70026513671875,0.4406149385333061,-0.37856735542118547,0.7052642383515835
1682095759844393200,22.720393310546875,0.4514718481123447,-0.45559272743463514,0.6137929923564195
1682095759864522200,22.740522216796876,0.6051619421333074,-0.4206394874751568,0.06654197192192077
1682095759884650200,22.760650146484377,0.7159072129189967,-0.195547706541419,-0.018002105158567427
1682095759904778200,22.7807783203125,0.79842767521739,-0.1674801344424486,-0.2037850812718272
1682095759924907300,22.8009072265625,0.6208282978206873,-0.25087679505348204,-0.24121084882467983
1682095759945035300,22.82103515625,0.15047757084839977,-0.35022622707784173,-0.20814093839377162
1682095759965164300,22.841164306640625,-0.2683615983396768,-0.2874520832568407,-0.4884288291096687
1682095759985292300,22.861292236328126,-0.3852899416744709,-0.14727379723787307,-0.48960576393455263
1682095760005421000,22.881421142578127,-0.308953136447072,-0.19475392581522463,-0.515942858979106
1682095760025549000,22.901549072265624,-0.0781868170082569,-0.3566863630026579,-0.6430705247670412
1682095760045678000,22.921677978515625,0.14524433723688124,-0.4097106817036867,-0.5728405119821429
1682095760065806000,22.94180615234375,0.25802317794309926,-0.5193126276731491,-0.7575082203298806
1682095760085934000,22.96193408203125,0.3097323041260242,-0.4941840316355228,-0.651353492204845
1682095760106063400,22.9820634765625,0.25989596781134605,-0.4554156173020601,-0.6113809627786279
1682095760126191400,23.00219140625,-0.17611584257436916,-0.41010055780410765,-0.719054863294959
1682095760146320400,23.0223203125,-0.4502046046555042,-0.33090368697047234,-0.2262412432298064
1682095760166448400,23.042448486328126,-0.31461539999246596,-0.1287766020387411,-0.4514011209636926
1682095760186577400,23.062577392578124,-0.16078618976175785,-0.26572014392018317,-0.5096592486649751
1682095760206705400,23.082705322265625,0.07677344307899475,-0.3513105151832103,-0.4976490773975849
1682095760226834200,23.102834228515626,0.2375760359862819,-0.28758126259446143,-0.5043503286018968
1682095760246962400,23.12296240234375,0.18041859953589737,-0.12457798130512236,-0.6396010950908064
1682095760267090400,23.14309033203125,-0.02695928206350654,0.12629121496379375,-0.718314566321671
1682095760287219500,23.163219482421876,-0.15696812931094317,0.3466483685910702,-0.6521130784004926
1682095760307347200,23.18334716796875,-0.11730828256309032,0.2994721913963556,-0.5190057536810636
1682095760327476500,23.2034765625,-0.06059504621624946,0.07022095269560813,-0.5047977801084518
1682095760347604500,23.2236044921875,-0.16452891995403915,-0.17444821988940237,-0.6170733292013406
1682095760367733500,23.2437333984375,-0.41387185650374736,-0.4437503139495849,-0.6458528489619493
1682095760387861500,23.263861572265625,-0.6571393821299075,-0.47166415679156776,-0.8363967558667064
1682095760407990500,23.283990478515626,-0.7784159838020801,-0.5849971059828997,-0.8828612776607274
1682095760428118500,23.304118408203124,-0.6893839476525783,-0.589127337655425,-0.8401692601427435
1682095760448246500,23.32424658203125,-0.33510994302127506,-0.4312684335172176,-0.8716676834732293
1682095760468375600,23.34437548828125,-0.34328736772537227,-0.3984674031555652,-0.5345505288153887
1682095760488503600,23.364503662109374,-0.6989759518623352,-0.30676585553586483,-0.3414686278656125
1682095760508632300,23.38463232421875,-1.0219681350558996,-0.5285480735301971,-0.3339724268913269
1682095760528760300,23.40476025390625,-0.9292156170785426,-0.25348084007203575,-0.14035802650004625
1682095760548889300,23.424889404296874,-0.6889226868163794,0.35992461427152156,-0.01084901853352785
1682095760569017300,23.445017333984374,-0.41855212327446784,0.5892945109158754,0.3092658556580543
1682095760589146400,23.465146484375,-0.17798406586535273,0.7148211712479591,0.38826691165864463
1682095760609274400,23.4852744140625,-0.1201502279907465,0.7301578565895557,0.6168892048060893
1682095760629402400,23.50540234375,-0.2720457667451352,0.8087246128261089,0.7874825028330087
1682095760649531400,23.525531494140626,-0.4024199401736259,0.980105261838436,0.8610837456166743
1682095760669659400,23.545659423828123,-0.4224509208112955,1.1109148310095072,0.8082944047152996
1682095760689788400,23.565788330078124,-0.4429979977449402,0.7404524561107159,0.7613193030506372
1682095760709916400,23.58591650390625,-0.2632230664074421,0.2332102054595947,0.780876236435771
1682095760730045400,23.60604541015625,-0.08987484364919364,-0.04002279830873012,0.9969494291335343
1682095760750173400,23.62617333984375,-0.22871647423692046,0.01641512822806835,0.6919634427517652
1682095760770302200,23.64630224609375,-0.5195336500126868,-0.03801905727088451,0.6631675563782453
1682095760790430200,23.66643017578125,-0.4439571981659159,0.03928279359638691,0.5983966857820749
1682095760810559500,23.6865595703125,-0.08051905934810638,0.06446224303841591,0.8479542149305344
1682095760830687500,23.7066875,0.11497666127774864,0.046990883755683895,1.2252858910769224
1682095760850815200,23.726815185546876,0.01659457644820213,0.011032850667834281,1.282540394693613
1682095760870944500,23.746944580078125,-0.16332706988360732,0.18330781817138195,1.066039331972599
1682095760891072500,23.767072509765626,-0.4181528582911938,0.2834562916189432,1.0269418318152428
1682095760911201500,23.787201416015623,-0.37713867432493714,0.4594008875459432,1.0355728820383547
1682095760931329500,23.80732958984375,-0.10936989077925681,0.3089683340162039,1.115676346322894
1682095760951458600,23.82745849609375,0.20076156873218715,-0.014927520018815994,0.8462731299757957
1682095760971586600,23.847586669921874,0.14290975680947304,-0.006499883413314819,0.515204023310542
1682095760991714600,23.867714599609375,-0.24811083747148513,0.10230419017672539,0.5095306538492441
1682095761011843300,23.88784326171875,-0.4425970157286152,0.19111586157381533,0.3502227199465036
1682095761031971300,23.907971435546877,-0.3077484002998099,0.41588089477121826,0.48523733959197995
1682095761052100400,23.928100341796874,-0.14923779078722,0.5444850628525019,0.7307879711866379
1682095761072228400,23.948228271484375,-0.2298292943170294,0.3190653651386499,0.852406518164277
1682095761092357400,23.968357421875,-0.24897359178066253,0.15981296081542967,0.49047056407034395
1682095761112485400,23.9884853515625,-0.17621935774777084,0.1573679057508707,0.23432956487834453
1682095761132614400,24.008614501953126,-0.03958261679317802,0.16792261751294135,0.44720191570818424
1682095761152742400,24.028742431640627,0.08184245343897491,0.30568799717128275,0.378827467662096
1682095761172870400,24.048870361328124,0.009192812291719019,0.6495704081803559,-0.004229600393772125
1682095761192999400,24.06899951171875,-0.20055528730405495,0.935134485733509,-0.38611411753892894
1682095761213127400,24.08912744140625,-0.3882119666010141,0.8616343652367592,-0.7938181355953217
1682095761233256400,24.10925634765625,-0.16078441792977974,0.5287877275049686,-0.7145674887478352
1682095761253384400,24.129384521484376,0.1525210685078986,0.5349608631819486,-0.3425421023160219
1682095761273513200,24.14951318359375,-0.00025834040893241763,0.8382692717403173,0.00367079746723175
1682095761293641200,24.16964111328125,-0.4250988049715757,0.9877391177177428,0.13316986856162547
1682095761313770200,24.189770263671875,-0.6462345417559147,0.47326399320363993,0.4604951125234365
1682095761333898200,24.209898193359376,-0.4514385303646326,0.13245558281242847,0.3485626777797937
1682095761354027300,24.23002734375,-0.14948444075835868,0.020702596288919448,0.35920097617208957
1682095761374155300,24.2501552734375,0.10700199260413647,0.030594460228085516,0.37153526482731103
1682095761394283300,24.270283203125,0.45481589784324167,-0.2751993354052305,0.27715193077772854
1682095761414412300,24.290412353515624,1.0950368783980606,-0.2977028436362743,0.9586220365658402
1682095761434540300,24.310540283203125,1.3252385496914385,0.023818097960948942,1.1161433793127535
1682095761454669300,24.33066943359375,0.5250362660169601,0.11329027909338474,0.9367480584099889
1682095761474797300,24.35079736328125,-0.46495910619497294,0.020978490620851515,0.4251227703690529
1682095761494926300,24.37092626953125,-0.5825806924909352,-0.10019757328629493,-0.0935483445301652
1682095761515054300,24.391054443359376,0.17944179039299488,-0.25225918932259084,0.002542377959191799
1682095761535183400,24.411183349609374,0.6322790816396474,-0.1610585769623518,0.37937808728218075
1682095761555311400,24.431311279296875,0.42397243129014967,0.04457037861049175,0.6272638838261365
1682095761575439000,24.451439208984375,-0.15152560946345328,0.33075814101994033,0.7743380668386817
1682095761595568400,24.471568359375,-0.44062662897109983,0.333946123406291,0.9449223047763109
1682095761615696400,24.4916962890625,-0.15581424656808376,0.12375438996255397,0.9553647883355617
1682095761635825400,24.511825439453126,0.24249358211159705,-0.03991699984669685,1.0722136366933583
1682095761655953400,24.531953369140624,0.3969137439727783,-0.23636603914201257,1.0565063644737005
1682095761676082400,24.55208251953125,0.36085341955423356,-0.24575989043116567,0.8166811247885227
1682095761696210400,24.57221044921875,0.35763095037639137,-0.11182079106271266,0.5857002858161926
1682095761716339500,24.59233935546875,0.3205892137050628,-0.312895736593008,0.5276122539848089
1682095761736467500,24.612467529296875,0.42272739966511724,-0.7359516375601292,0.6528846472948789
1682095761756595500,24.632595458984376,0.5929214692413807,-0.6878846490055323,0.3253773247644305
1682095761776724200,24.65272412109375,0.7970949653089046,-0.15923369962275027,-0.24341595765352247
1682095761796852200,24.672852294921874,0.7097194641947746,0.42019875797033307,-0.41506577899605035
1682095761816981200,24.692981201171875,0.3820920224159956,1.008082233044505,-0.1377715171381831
1682095761837109200,24.713109130859376,-0.35843466797471046,0.7759405335992574,0.1763534689888358
1682095761857238300,24.73323828125,-0.923530557179451,0.5084095408648253,0.11886369531154632
1682095761877366300,24.7533662109375,-1.2398948466658593,-0.1032008467555046,0.08115092751085758
1682095761897495300,24.773495361328123,-1.0350526575565338,-0.6052917059928179,-0.06488485236465931
1682095761917623300,24.793623291015624,-0.3709492816329002,-0.8705272812664508,-0.22769231882095337
1682095761937751300,24.813751220703125,0.37141397653520103,-0.9273913242608308,-0.5549371910229325
1682095761957880300,24.83388037109375,0.9025526510804891,-1.0345832864791153,-0.8143164414837956
