time,seconds_elapsed,z,y,x
1682095653886099000,0.023098876953125,0.43853520964980125,-1.0586430842414498,-0.8513976333826779
1682095653906227000,0.04322705078125,-0.2572042445093393,-0.30923326856270433,-1.010132151311636
1682095653926355000,0.06335498046875,-0.15972235992252826,-0.7730719924256205,-0.033738895733654496
1682095653946483000,0.08348291015625,0.67155135384202,-0.9582160861134529,0.15031097297668455
1682095653966612000,0.103612060546875,1.3064905946016312,-1.2284097221858798,0.03242167565524578
1682095653986740200,0.123740234375,1.0327841281026602,-0.8633081436678767,-0.2660986218437552
1682095654006868200,0.1438681640625,0.2983230213612318,-0.230548292773962,0.12568214315474033
1682095654026997000,0.1639970703125,-0.2834352488309145,-0.2885430933639407,0.2183189257979393
1682095654047125000,0.184125,0.7665028431683778,-0.20513328101038933,-0.28141104952692986
1682095654067253000,0.2042529296875,1.9437790288358925,0.16419497529193758,-0.03161094379425049
1682095654087381200,0.22438134765625,1.8040245211869477,-0.6017743455216288,1.2145727738827465
1682095654107510000,0.244510009765625,1.356901515933871,-0.28955680045112964,1.6458166574805975
1682095654127638000,0.264637939453125,0.5305377860426902,0.7965667036511004,0.38135552483499047
1682095654147766000,0.28476611328125,-1.0752724397420883,0.8538689919322728,-0.2896528081715107
1682095654167895000,0.30489501953125,-1.2201269008785485,1.0200064795941113,-0.4745610472768545
1682095654188023000,0.32502294921875,-0.05786240638196468,0.6582526040688157,0.3755681736052036
1682095654208151000,0.345151123046875,1.6183856297194956,0.44301323184669017,0.9598165070474147
1682095654228280300,0.3652802734375,2.1964169883430005,0.7360512985423207,1.101452006137371
1682095654248408000,0.385407958984375,1.0478343977183102,1.0068734417766332,1.301343294841051
1682095654268536000,0.4055361328125,-0.43123745385706425,1.1211968633100389,1.1308289072692395
1682095654288664000,0.4256640625,-1.0662772323817014,0.8898527439832686,0.10159224251508712
1682095654308793300,0.44579345703125,-0.29168343721628187,0.8364724514514207,-0.07071428917050361
1682095654328921000,0.465921142578125,-0.07199906828403473,1.2795672241017222,0.3722796534538269
1682095654349049000,0.486049072265625,-0.3819172503709793,1.767934386152029,0.7396534146875142
1682095654369178400,0.506178466796875,-0.8000701817274093,1.962262487770617,0.27284897288680077
1682095654389306400,0.526306396484375,-0.9980389779359101,1.6592855031237006,-0.587062806341052
1682095654409434000,0.54643408203125,-0.34871816060245037,1.5966811629116535,-0.6102069505631923
1682095654429562000,0.56656201171875,0.21754151168465613,1.4418576809465884,-0.09345102163553237
1682095654449691400,0.58669140625,0.4877785485073924,1.2166761759027838,-0.16763094108998775
1682095654469819400,0.6068193359375,-0.20134704046994448,0.7904346306368708,-0.869172944048047
1682095654489947100,0.626947021484375,-0.7526853302180767,0.4745718609318137,-0.6381494349777698
1682095654510076200,0.647076171875,-0.4686377947077155,0.49504503237903114,-0.012381927189230918
1682095654530204400,0.667204345703125,-0.007044365553557873,0.4138835834741592,0.3933984293282032
1682095654550332400,0.68733251953125,0.047096682217717165,0.5668944630593061,-0.15074176560938357
1682095654570461200,0.707461181640625,-0.7827341392621397,0.3111187900483608,-0.5355173280209302
1682095654590589200,0.727589111328125,-1.423872234661877,0.3349415641844272,-0.388775445702672
1682095654610717200,0.74771728515625,-1.5237784237861633,0.2811789943367243,-0.17576923936009406
1682095654630845200,0.76784521484375,-1.024331941577792,0.24845628990828988,-0.879188142105937
1682095654650974200,0.78797412109375,-0.6380886447012424,0.39525662441551684,-0.8647732477843761
1682095654671102200,0.808102294921875,-0.2902753239840269,0.4146025453984737,-0.03636486032307148
1682095654691230200,0.828230224609375,-0.13934066615104673,0.014672668474912642,0.20896306843161583
1682095654711359200,0.848359130859375,0.04066431108266115,-0.7531897726088762,-0.42020051153600213
1682095654731487200,0.8684873046875,0.029681144775450228,-1.0813777708798646,-1.203579670703411
1682095654751615200,0.888615234375,-0.10923691204935311,-0.9254425282806158,-1.0641191775649785
1682095654771743200,0.9087431640625,-0.4263810998670757,-0.4836410103112459,-0.5794307040274143
1682095654791872300,0.928872314453125,-0.7354581549547612,-0.5208545964181422,-0.3185515703976154
1682095654812000300,0.949000244140625,-0.8899518204435706,-0.4555453811615705,-0.674378686222434
1682095654832128300,0.969128173828125,-1.2505462968006729,-0.34273265645205975,-1.7285194906085728
1682095654852257300,0.98925732421875,-1.2334241893470286,-0.3089659959286451,-1.4558318457633257
1682095654872385300,1.00938525390625,-0.738193571268022,-0.14256547341644762,-0.7101683770060538
1682095654892513300,1.02951318359375,-0.21200360517129302,-0.15107026691138745,-0.11975742928087711
1682095654912642300,1.049642333984375,0.04429974497556686,0.1632289067387581,0.08322890282869339
1682095654932770300,1.069770263671875,-0.4136450985431671,0.2914198178440332,0.21836919468045232
1682095654952898300,1.089898193359375,-0.925992271117866,0.1415735397696495,-0.26174656411409375
1682095654973026300,1.1100263671875,-0.5852063648194075,-0.4211626345664263,-0.44904082157313824
1682095654993154800,1.13015478515625,0.04503726546987891,-0.9057412179887294,-0.5090823255598544
1682095655013282800,1.15028271484375,0.6143513568915426,-0.7302537181794643,-0.5708703809529543
1682095655033410800,1.170410888671875,0.319241452357918,0.0392003760099411,-1.008943818309903
1682095655053539800,1.190539794921875,-0.21146248403191564,0.20678338630497453,-0.8306143730729818
1682095655073667800,1.210667724609375,-0.22052900306284426,0.22695289863049983,-0.9011544747203588
1682095655093795800,1.2307958984375,0.05776829835772514,0.1711100153774023,-1.0389099175065755
1682095655113923800,1.250923828125,0.08120178091526031,0.4147241259515285,-1.0300374597430229
1682095655134052900,1.271052978515625,-0.4688035066634416,0.7121896537005901,-0.9950871423929929
1682095655154180900,1.291180908203125,-1.1259995874166489,0.6275672506868839,-0.172294841247797
1682095655174308900,1.311308837890625,-0.8381060440026223,0.15454758763313292,0.3454442534983158
1682095655194437600,1.331437744140625,-0.26621749898307023,-0.4523223274618387,0.4428285229295492
1682095655214565600,1.351565673828125,0.38169630109667774,-0.5066571442395449,0.260539526411891
1682095655234694000,1.37169384765625,0.4986474407851696,-0.3097235362976789,0.07848609221577645
1682095655254822000,1.39182177734375,0.01631926663815975,-0.11680734730362892,-0.2923614826083183
1682095655274950700,1.41195068359375,-0.15000585255026816,-0.7197831775695085,-0.16323182934820651
1682095655295078700,1.43207861328125,0.10063494179025292,-1.002711061400175,-0.25706805090904233
1682095655315206700,1.45220654296875,0.29002675605043765,-1.1916554241538047,-0.48399055440127847
1682095655335335700,1.472335693359375,-0.07962174518220126,-1.1128595353364943,-0.4803197569340467
1682095655355463700,1.492463623046875,-0.5550519765090197,-1.2134347097635267,-0.550066662377119
1682095655375591700,1.512591796875,-0.7067862602870911,-0.9420300904661416,-0.6163017603069544
1682095655395720700,1.532720703125,-0.7150082182526588,-1.1187491778969765,0.09800444715619086
1682095655415848700,1.5528486328125,-0.4098971441864967,-0.9084136520683765,0.31754853083491325
1682095655435976700,1.572976806640625,-0.012027706924080847,-0.6488368332087994,0.09743979901075363
1682095655456104700,1.593104736328125,0.5214285969138145,-0.420734180021286,-0.007082067215442657
1682095655476233700,1.613233642578125,0.5493552261721343,0.1448585527896881,-0.11439151833355427
1682095655496361700,1.63336181640625,0.09173011612705886,0.6596247692048549,-0.10930150171816348
1682095655516489700,1.65348974609375,-0.42028292912244797,0.8954074555009603,-0.011319266393780707
1682095655536618800,1.67361865234375,-0.7273088238339871,0.7595446945935487,-0.07699731496274471
1682095655556746800,1.693746826171875,-0.7559849562853574,0.2695429170787334,-0.11583996357619762
1682095655576874800,1.713874755859375,-0.44377128367237745,-0.10383505300581454,-0.17724281904399394
1682095655597002800,1.734002685546875,-0.01187163957953453,-0.12243103240430354,-0.1918137807101011
1682095655617131800,1.7541318359375,0.44225167288966477,-0.16525544413030147,-0.032848376634716986
1682095655637259800,1.774259765625,0.9228992735385895,-0.1511509309321642,-0.005813654714822769
1682095655657387800,1.7943876953125,1.055629070182517,-0.2785235113918781,0.003735679396986961
1682095655677517000,1.81451708984375,0.7258856591630727,-0.6641413698464632,0.299551686373353
1682095655697644800,1.834644775390625,0.4683805320110172,-1.0252139851093292,0.4077273989319801
1682095655717772800,1.854772705078125,0.37339324071891605,-1.2866478300124407,0.3458095796793699
1682095655737900800,1.87490087890625,0.6150725838381796,-1.5110808547765016,0.000820084211230278
1682095655758029800,1.89502978515625,0.9064707743722945,-1.218339432939887,-0.3806833246618509
1682095655778157800,1.91515771484375,0.5476836396981031,-0.6295411811083554,-0.2686123582303524
1682095655798285800,1.935285888671875,-0.2473229019641876,0.015798457634449006,0.0846831932902336
1682095655818414800,1.955414794921875,-0.6590378361623734,0.24759353559911249,-0.021322189491987227
1682095655838542800,1.97554296875,-0.3998902025002986,0.19199965867102145,-0.3766711664110422
1682095655858670600,1.995670654296875,-0.04465754543729126,-0.0253144739985466,-0.3410468953222036
1682095655878800000,2.0157998046875,0.1315046387631446,-0.1820546032398939,-0.2833101611465216
1682095655898927900,2.035927978515625,0.061631988048553465,-0.2755664151519537,-0.2885316951870918
1682095655919056000,2.056055908203125,0.0775076025724411,-0.44832361321449277,-0.444408485597372
1682095655939183600,2.07618359375,0.5328748506881297,-0.5981044248372316,-0.6042454118102789
1682095655959313000,2.09631298828125,1.0544436597902327,-0.5601268686205149,-0.7812041532158851
1682095655979441000,2.11644091796875,0.9305037571929394,-0.24818740983903406,-0.7879992201834917
1682095655999569200,2.136569091796875,0.2925409308284521,-0.08218903838694096,-0.6337748731553554
1682095656019698200,2.1566982421875,-0.02695931859612465,0.08336158929765224,-0.4003723599940538
1682095656039826200,2.176826171875,0.18691840988397598,0.08702478798031807,-0.2653402046918869
1682095656059954200,2.1969541015625,0.3224480663795024,0.1209644669830799,-0.2796089685410261
1682095656080082200,2.217082275390625,0.2778828754007816,0.4367763832837343,-0.24199673850536346
1682095656100211200,2.237211181640625,0.018067425479739902,0.8197937038511037,-0.03714578156769276
1682095656120339200,2.257339111328125,-0.13718845655322073,0.6347019248723983,0.07717559413909912
1682095656140467200,2.27746728515625,0.063359834754467,0.42011224873065944,-0.12224807705283164
1682095656160596200,2.29759619140625,0.21303148691430687,0.1333387953877449,0.07086392677426338
1682095656180724200,2.31772412109375,0.16733575753569602,-0.009089315384626389,0.28006489561498166
1682095656200852200,2.337852294921875,-0.2759142056763172,-0.12253507730066776,0.23590017519593237
1682095656220980200,2.357980224609375,-0.8111252442270517,-0.4020271414637565,0.19888357296586034
1682095656241109200,2.378109130859375,-0.9125538206130266,-0.6689934860527516,0.09470423656702041
1682095656261237200,2.3982373046875,-0.4777841009765863,-0.641920185688138,-0.14413374564647674
1682095656281365200,2.418365234375,0.19082433128133416,-0.47943362174928184,0.07482289353311061
1682095656301494000,2.438493896484375,0.6033528468847275,-0.08293138118684291,0.1135270104587078
1682095656321622000,2.4586220703125,0.5115051687926053,0.48246612131297584,-0.0077437459945678706
1682095656341750300,2.478750244140625,0.11073416486978531,0.3970043448656797,0.14787936191558837
1682095656361878300,2.498878173828125,0.1783551642000675,0.5561030199319124,-0.1461187819838524
1682095656382007000,2.519007080078125,0.07782265987098216,0.45682548409998414,-0.04984744223058223
1682095656402135000,2.539135009765625,0.020645459274202586,0.528602434065938,-0.019072364738583564
1682095656422263000,2.559262939453125,-0.1454581261180341,0.6071072309821843,-0.1345931793630123
1682095656442392000,2.57939208984375,-0.4199174568109214,0.3351473158895969,0.12688801181316375
1682095656462520000,2.59952001953125,-0.47286929479762907,0.06883388225138187,0.1425233878403902
1682095656482648000,2.61964794921875,-0.24234569807350634,-0.2128361104726791,0.24330489849448203
1682095656502777000,2.639777099609375,0.05801978890076279,-0.3955588222324848,0.373124287584424
1682095656522905000,2.659905029296875,0.257126503098011,-0.3710030576467514,0.3064613196313381
1682095656543033000,2.680033203125,0.3759504509210586,-0.17891572069227693,0.37348727567791934
1682095656563161000,2.7001611328125,0.35028833252862096,-0.021805004572868346,0.5990484276890754
1682095656583290000,2.7202900390625,0.4070150128789246,0.12914192821979523,0.5174345588415861
1682095656603418000,2.740418212890625,0.511101264166832,0.26254034484028815,0.36676527394652364
1682095656623546000,2.760546142578125,0.5467154522530734,0.24132979902923105,0.28409458952248096
1682095656643675100,2.780675048828125,0.44195130170360203,0.2137789442807436,0.40273207486271856
1682095656663803100,2.80080322265625,0.20410876026824115,0.1186462531685829,0.4601391386926174
1682095656683931100,2.82093115234375,0.012721972798556089,0.24938626423478125,0.32784839105308056
1682095656704059100,2.84105908203125,-0.24190029239356517,0.29479309366941453,0.4229197073668241
1682095656724188200,2.861188232421875,-0.22854206751808523,0.16953355984091759,0.16731646831333635
1682095656744316200,2.881316162109375,-0.06564706890881061,-0.031681086421012875,-0.056868719169497484
1682095656764444200,2.901444091796875,0.1603565661728382,-0.14044658156633377,0.1610579924404621
1682095656784573200,2.9215732421875,0.23132161523401737,0.10608195514976977,0.2805576475679874
1682095656804701200,2.941701171875,-0.06344400590658188,0.19385902280211448,0.6355377911746501
1682095656824829200,2.9618291015625,-0.1751626517690718,0.15354805520176887,0.5317611903578042
1682095656844958000,2.9819580078125,-0.12984978422820567,0.034034371548891065,0.20249299563467502
1682095656865086000,3.0020859375,-0.09699600076600909,0.03887655088305473,0.12177110719084738
1682095656885214200,3.022214111328125,0.11257423977851867,0.1990647747516632,0.27650048113167286
1682095656905342200,3.04234228515625,0.15441840829551218,0.5721861397266388,0.749105718165636
1682095656925471000,3.062470947265625,-0.04753901915773749,0.4862468088954687,0.9889180983692407
1682095656945599000,3.082598876953125,-0.2333241872280836,0.3391097897797823,0.2994330284297466
1682095656965727000,3.10272705078125,-0.3030921354591846,0.17554595199823378,-0.027182605957984923
1682095656985856000,3.12285595703125,-0.15276479586958885,0.31659809824228285,-0.1498907017379999
1682095657005984300,3.142984375,0.04112666789740324,0.6180389593631028,-0.6585626929312944
1682095657026112300,3.1631123046875,0.12594773528836667,0.8592951086342334,-0.6742787329792976
1682095657046240300,3.183240234375,0.08198109472468496,0.8745096289008856,-0.09495499645769595
1682095657066369300,3.203369384765625,-0.009748583010956645,0.8148439724892378,0.5721843861609697
1682095657086497300,3.223497314453125,-0.2048936270356178,0.3110141606301069,0.6641425388902426
1682095657106625300,3.243625244140625,-0.3157553638078272,-0.2680845349639654,0.4668529571175575
1682095657126754300,3.26375439453125,-0.19670206420831382,-0.4202805910348892,0.6014174949079751
1682095657146882300,3.28388232421875,0.11637903888896108,-0.3312017931342125,0.5437479807496071
1682095657167010300,3.30401025390625,0.3036299686629325,-0.3865571851313114,0.252126502853632
1682095657187138300,3.32413818359375,0.5680338423527777,-0.18154723823964594,-0.11659691942334174
1682095657207267300,3.344267333984375,0.5743184755802154,0.0280506209641695,-0.6271767900645733
1682095657227395300,3.364395263671875,0.24690394589975476,-0.0880383489370346,-0.8923246870547532
1682095657247523300,3.3845234375,-0.24109599027335643,-0.358812269115448,-0.6624544396728277
1682095657267652400,3.40465234375,-0.21800964065305886,-0.43952831234037876,-0.19272797294557092
1682095657287780400,3.4247802734375,0.000768061763048172,-0.32924773645699024,0.33362054471373553
1682095657307908400,3.444908447265625,0.16894260821044443,-0.2437994040131569,0.6462298655807972
1682095657328037400,3.465037353515625,0.2124455767851323,0.06331599561274051,0.640827129754424
1682095657348165400,3.485165283203125,-0.1327244628816843,0.0447206007361412,0.697711631014943
1682095657368293400,3.50529345703125,-0.09574943477101623,0.06749240451455116,0.5461626406759024
1682095657388421400,3.52542138671875,0.1795890899091959,0.06454349158108234,0.40028059005737304
1682095657408550100,3.545550048828125,0.2786247067440301,-0.05126724590063095,0.03934124578535556
1682095657428678400,3.565678466796875,0.19165186814665794,-0.3013695494502783,-0.2537631641447544
1682095657448806400,3.585806396484375,0.04281440178863704,-0.6564847176134586,-0.5052262346535921
1682095657468935200,3.60593505859375,-0.08697853768579661,-0.645961570033431,-0.9334563233882188
1682095657489063200,3.626063232421875,-0.050526583601161836,-0.655654112008214,-0.5179886855930089
1682095657509191200,3.646191162109375,0.07527699397616087,-0.657524582055211,-0.7326707161933184
1682095657529319200,3.666319091796875,0.11419570350050925,-0.8339847262889146,-1.1799527114003896
1682095657549448200,3.6864482421875,0.19448738383352757,-1.0221043286561966,-0.9121510850310325
1682095657569576200,3.706576171875,0.2801012090373784,-1.0567927801996468,-0.9377315164893865
1682095657589704200,3.7267041015625,0.31751345952153204,-0.7137795532405377,-0.8611468739807605
1682095657609833200,3.746833251953125,0.2615659468501806,-0.5027507844507694,-0.7435346400350332
1682095657629961200,3.766961181640625,0.1478640912812203,-0.40671149988770483,-0.957818611228466
1682095657650089200,3.787089111328125,0.16247662706673144,-0.7655752069294453,-0.44832127512693404
1682095657670218200,3.80721826171875,0.4655425321061164,-0.6192892516851425,0.08882219279110432
1682095657690346200,3.82734619140625,0.26832426200397314,-0.3571586566895246,0.35513621095120906
1682095657710474200,3.84747412109375,-0.13810907852947713,-0.1337438690572977,0.5040262112140655
1682095657730602200,3.867602294921875,-0.2190541082046926,-0.17051964826881885,0.5664373669415712
1682095657750731300,3.887731201171875,0.35396555973663923,-0.28132044863402844,0.7592442503422498
1682095657770859300,3.907859375,0.7537756096728145,-0.3959545435518026,0.6015028351038694
1682095657790987300,3.9279873046875,0.44432431444525716,-0.4491775996953249,0.046669396716356275
1682095657811116300,3.9481162109375,-0.3828429869137704,-0.3082563863545656,-0.28691549216210843
1682095657831244300,3.968244384765625,-0.9662678751438856,-0.17203472900688646,-0.4407832808375358
1682095657851372300,3.988372314453125,-0.9970365228950977,-0.19582944609224795,-0.6291793620586394
1682095657871500300,4.008500244140625,-0.8249257329773158,-0.24197511119544504,-1.0079939702391625
1682095657891629300,4.02862939453125,-0.7265372549396008,-0.5704758286774159,-1.1941215220063923
1682095657911757300,4.04875732421875,-0.4616938207887113,-0.5264250900268554,-1.250719607540965
1682095657931885300,4.06888525390625,-0.16999182500243187,-0.22430326090455055,-0.9297194749474524
1682095657952014000,4.08901416015625,-0.17639518923871217,0.2915823149293661,-0.8842126922696828
1682095657972142300,4.109142333984375,-0.46819151224493977,0.6138134506225585,-0.9008066841959953
1682095657992270300,4.129270263671875,-0.9115138831060379,0.46175300363004207,-1.102593577387929
1682095658012397800,4.149397705078125,-0.8163543770521878,-0.2721843714982271,-1.2207669523477553
1682095658032526800,4.16952685546875,-0.42233007091060276,-0.9259709360688925,-0.9956406846225261
1682095658052654800,4.18965478515625,-0.07833404345922172,-1.04749946667552,-0.8153454922705888
1682095658072782800,4.209782958984375,0.07515439050979912,-0.8174801662117243,-0.5299596938937902
1682095658092911600,4.22991162109375,-0.09145305275134742,-0.2548135499805212,-0.08237082469463348
1682095658113039600,4.25003955078125,-0.45383207443766294,-0.04900105453431606,-0.13629822971522806
1682095658133167600,4.270167724609375,-0.6032504094235599,-0.3452747421503067,-0.3690887484580278
1682095658153296600,4.290296630859375,0.04101414743363857,-0.2798094595491886,-0.04872574472427368
1682095658173424600,4.310424560546875,0.5383709638863802,-0.07625964833796024,0.6237701964914798
1682095658193552600,4.330552734375,0.5201451329745352,0.5368634819328785,0.5923889697998762
1682095658213680600,4.3506806640625,-0.2173940660379827,0.6725806968897581,0.16711071660816668
1682095658233809700,4.3708095703125,-0.53786286823377,0.46748833241164683,-0.024229016849398613
1682095658253937700,4.390937744140625,-0.09202288852855563,0.588648029705882,0.1125900218695402
1682095658274065700,4.411065673828125,0.16745792261064052,0.3448258293390274,0.9386755193412304
1682095658294194700,4.431194580078125,0.5038017548084259,0.8155442297130823,0.7050555640369653
1682095658314322700,4.45132275390625,0.3677373338490724,0.8264508236527442,0.2876993360161781
1682095658334450700,4.47145068359375,-0.2558276954591274,0.39419279457628725,0.21179916864037512
1682095658354578700,4.49157861328125,-0.27761633341908454,0.36873920436799523,0.7648235117793083
1682095658374707700,4.511707763671875,-0.3441553827315569,0.3311918562620878,1.3391764741510153
1682095658394835700,4.531835693359375,-0.06124737264513969,1.233524142590165,0.7474462605208158
1682095658414963700,4.551963623046875,-0.3978384576022625,0.7349170338153839,0.41629648983478545
1682095658435092700,4.5720927734375,-0.26920520955696703,0.37519992481470105,-0.5262345358908176
1682095658455220700,4.592220703125,0.1865162588238716,0.6415139429748058,0.5687818842411041
1682095658475348700,4.6123486328125,0.21449147646427152,0.41586920433342456,1.4852917490035296
1682095658495477800,4.632477783203125,0.6517161880373954,0.2831429878860712,1.2807996885061264
1682095658515605800,4.652605712890625,0.8835657726682722,0.42186932153105733,0.46121524349153037
1682095658535733800,4.672733642578125,0.5986234802752732,0.3875461961686611,-0.03095627927780151
1682095658555861800,4.69286181640625,0.3527924243040383,0.15278291604816913,-0.2072036575436592
1682095658575990800,4.71299072265625,0.38361689389571546,-0.0445727166980505,-0.32313246844708915
1682095658596118800,4.733118896484375,0.09962707992196082,-0.15344985552430151,-0.17982172962129114
1682095658616246800,4.753246826171875,-0.212362647742033,-0.42697745832502837,-0.21159224789142608
1682095658636375600,4.77337548828125,-0.18578195319995283,-0.3961345762938261,-0.4451835616230964
1682095658656503600,4.793503662109375,-0.07313881290368736,-0.3832984755963087,0.17468319768905638
1682095658676631800,4.8136318359375,0.23749708899855612,-0.22852409346997737,0.6558458351880312
1682095658696760600,4.833760498046875,0.377859499412775,-0.37244215053915974,0.786726716029644
1682095658716888600,4.853888671875,0.31716873773708937,-0.5984124678730964,0.48987318269908425
1682095658737016600,4.8740166015625,0.06365567589588463,-0.6687152536332607,0.181000710272789
1682095658757144600,4.89414453125,-0.04539689256250858,-0.4311994599342346,0.4314098878145218
1682095658777273600,4.914273681640625,-0.03050605129227042,-0.14513503164350985,0.5506885936677456
1682095658797401600,4.934401611328125,-0.12635828885063527,0.08773556659817695,0.3881044145733118
1682095658817529600,4.954529541015625,-0.26178967260345815,0.08262392267286776,0.051854105877876276
1682095658837658600,4.97465869140625,-0.19694354481399057,0.15671148766875267,-0.4992687875539064
1682095658857786600,4.99478662109375,-0.20646730609312652,0.010101707297563552,-0.12762918556928635
1682095658877914600,5.01491455078125,-0.003781272104382515,0.2711597046256065,0.030798458367586132
1682095658898042600,5.035042724609375,-0.07872691523432732,0.4703939907252788,-0.0753115538328886
1682095658918171600,5.055171630859375,-0.15829839153401554,0.6420405971974134,-0.43286125566661354
1682095658938299600,5.075299560546875,-0.13090828030519186,0.846744254618883,-0.9432201770335435
1682095658958427600,5.095427734375,-0.1354864018756896,0.5847942768871783,-0.7610504229813814
1682095658978556700,5.115556640625,-0.17865970010459423,0.25040274780094623,-0.2415758827447891
1682095658998684400,5.135684326171875,-0.639946839788556,-0.1929991911023855,0.3458125022888183
1682095659018812400,5.1558125,-1.0960487588543444,-0.36131110019385815,0.5952946281135082
1682095659038941400,5.17594140625,-1.1294651446353643,-0.3656774787098169,0.5464058017820119
1682095659059069400,5.1960693359375,-0.006862433115392923,-0.2117313641011715,0.7663549591302872
1682095659079197400,5.216197509765625,0.8983868366379291,-0.20141104561686515,0.9865846869856119
1682095659099325400,5.236325439453125,1.0719068357665091,-0.2872024924099445,0.7553671166479587
1682095659119454500,5.256454345703125,0.8148083897192031,-0.06234568927586078,0.04325695792436599
1682095659139582500,5.27658251953125,0.25293087803907693,0.15651625735759733,-0.3938888431936502
1682095659159710500,5.29671044921875,-0.4488501943718642,0.4205740210235119,-0.20543781691491603
1682095659179839500,5.316839599609375,-0.5780090737264603,0.683476184913516,0.32269758416116234
1682095659199967500,5.336967529296875,-0.27904716993980105,0.42906595503687855,0.5085346285492182
1682095659220095500,5.357095458984375,0.11275551462955773,-0.011997311785817146,0.6656751552850008
1682095659240224300,5.377224365234375,-0.014674933497235178,-0.3771539814919233,0.8879746751517057
1682095659260352300,5.397352294921875,-0.46809623517692084,-0.34174189184904097,0.8851847521722316
1682095659280480500,5.41748046875,-0.510804253981635,-0.17063655264675617,0.795794404104352
1682095659300608500,5.4376083984375,0.08904613774009049,-0.10351531953215598,0.5705599998295307
1682095659320737300,5.4577373046875,0.8575193311333655,-0.04533376419842243,0.49932899330854413
1682095659340865300,5.477865234375,1.3118594281584024,0.14644143806695936,0.3559358368963003
1682095659360993300,5.4979931640625,1.011676531209424,0.6821738701432943,0.179387429857254
1682095659381122300,5.518122314453125,-0.014252908692881464,0.5076525850176811,0.6115636258691549
1682095659401250300,5.538250244140625,-0.3990612043302506,0.4151227698802948,0.2710036372810602
1682095659421378300,5.55837841796875,-0.24648995827138423,0.016993220376968383,-0.1259574529647827
1682095659441506300,5.57850634765625,0.052965866512060165,-0.1439659878641367,-0.3323118002027273
1682095659461635300,5.59863525390625,0.1375830818939954,-0.22215280487239358,-0.2821533923268318
1682095659481763300,5.618763427734375,0.13409173264689742,-0.272455005133152,-0.18198329156935214
1682095659501891300,5.638891357421875,0.1270868223208934,-0.3924783918738365,-0.520455952489376
1682095659522020400,5.659020263671875,0.3201180890619755,-0.6377735874027013,-0.47863925650119776
1682095659542148400,5.6791484375,0.5034720844626427,-0.7161831072509288,-0.596816723114252
1682095659562276400,5.6992763671875,0.5519787065435201,-0.7608680521517992,-0.7579004345178604
1682095659582405400,5.7194052734375,0.3491642238695174,-0.7259504680275917,-0.35723756714463234
1682095659602533400,5.739533447265625,0.06392747857458889,-0.7596031467825174,-0.3142243548482656
1682095659622661400,5.759661376953125,0.0741929250665009,-0.8597486976206302,-0.20203531499505042
1682095659642789400,5.779789306640625,0.16012874876633285,-1.0062105939537287,-0.22506430840492248
1682095659662918400,5.79991845703125,0.28814824882745743,-0.9392588721871376,-0.5126420638680458
1682095659683046400,5.82004638671875,0.1315350339014083,-0.8188321653425693,-0.8163812650591135
1682095659703174400,5.84017431640625,-0.12219020938575267,-0.6708265466988086,-1.3074831127703188
1682095659723303400,5.860303466796875,-0.13083989124409853,-0.5147533569335937,-1.3221405836760998
1682095659743431400,5.880431396484375,0.01362052907347679,-0.6086462771177291,-1.4633131414294243
1682095659763559400,5.900559326171875,0.02691613704152405,-0.6644266165286302,-1.6694085454702376
1682095659783688200,5.920688232421875,-0.2235373910985887,-0.4680646709948778,-1.8175725695461034
1682095659803816200,5.940816162109375,-0.45973808361105617,-0.37682080401480195,-1.3277175070255993
1682095659823944400,5.9609443359375,-0.4005400447111577,-0.2927151183515787,-0.7306547001957893
1682095659844072400,5.981072509765625,0.14546762459874152,-0.2602104405879974,-0.04213876754939556
1682095659864201200,6.001201171875,0.3987702585596591,-0.31188042207062244,0.33351591529548164
1682095659884329200,6.0213291015625,0.10086341678388416,-0.17686930955648422,0.28042086944580075
1682095659904457200,6.041457275390625,-0.17535788208022712,0.12305471726059913,0.21983576010167596
1682095659924586200,6.061586181640625,0.2404214520126581,0.8576917650908231,0.1749520777583122
1682095659944714200,6.08171435546875,0.5214964014530181,1.1264625287532806,0.11945523146390914
1682095659964842200,6.10184228515625,0.37955176334865387,0.7931447663784027,-0.15321780033409593
1682095659984970200,6.12197021484375,-0.2422637188784778,0.2030167272478342,-0.20419570789933203
1682095660005099500,6.142099609375,-0.7182721884846687,-0.15985270830392836,-0.039702480313181875
1682095660025227500,6.1622275390625,-1.0562703637607396,-0.33130583803057667,0.24698680187761782
1682095660045355500,6.18235546875,-0.9415520976908505,-0.49361061566174025,0.22824118487536907
1682095660065484500,6.202484619140625,-0.3874314837478101,-0.4409504540979862,-0.21979659713506697
1682095660085612500,6.222612548828125,-0.09598083237409591,-0.6104243927061558,-0.10650690256357193
1682095660105740500,6.242740478515625,0.07682371196150779,-0.41923371233046053,0.002885200047492981
1682095660125869600,6.26286962890625,0.11131415671482682,-0.18423136275708674,0.3354997825890779
1682095660145997600,6.28299755859375,0.21806232068836687,-0.2002893481105566,0.3079956895917654
1682095660166125600,6.30312548828125,0.32265440260656175,-0.030137364110350607,-0.034928105518221855
1682095660186253600,6.323253662109375,-0.069798781760782,0.16482172888815402,-0.5076765504151582
1682095660206382600,6.343382568359375,-0.46305933698825535,0.4688789099872112,-0.38070027579665183
1682095660226510600,6.363510498046875,-0.5759620050035417,1.0218354485869408,-0.04263970280885696
1682095660246638600,6.383638671875,-0.8497557113945484,1.31436293541193,-0.046751229780912396
1682095660266767600,6.403767578125,-1.2387139663182198,0.48073301391005513,-0.2983873187690973
1682095660286895600,6.4238955078125,-1.1247229916095733,-0.10424421832859515,-0.5831213752388954
1682095660307023600,6.444023681640625,-0.7363553960554301,-0.41379064449369907,-0.18035306001901624
1682095660327152400,6.46415234375,-0.008969926788657902,-0.41518005302548405,0.5304869326382875
1682095660347280400,6.4842802734375,0.5313118391551077,-0.26755203552246093,0.583051232612133
1682095660367408600,6.50440869140625,0.7295645668715238,-0.33636896663904187,0.6319973420888185
1682095660387536600,6.52453662109375,0.5042400000952184,-0.4024386448740959,0.7185054127186536
1682095660407665400,6.54466552734375,0.10086129789203405,-0.21676468209326266,0.9936907195985316
1682095660427793400,6.56479345703125,0.03595701017454266,-0.08015490221083164,1.5112643946498632
1682095660447921400,6.58492138671875,0.25739757512435313,0.1769131486982107,1.3937866007387638
1682095660468050400,6.605050537109375,0.3440636127948761,0.060656421014666555,1.245266602832079
1682095660488178400,6.625178466796875,0.43768750677928325,0.004102174621820449,0.7355021402269601
1682095660508306400,6.645306396484375,0.5777985727809369,0.5468704966843128,0.5378635988861322
1682095660528435500,6.665435546875,0.3266718946196139,0.88899232776165,0.6718582278341054
1682095660548563500,6.6855634765625,-0.07251213237270712,1.217386077737808,0.5488654698938131
1682095660568691500,6.70569140625,-0.47925461192056534,0.9225421306639909,0.35930209845900535
1682095660588819500,6.7258193359375,-0.7203337971895932,0.5353858105957507,0.08709493060708046
1682095660608948500,6.745948486328125,-0.8069353913217783,0.6762631847947835,-0.04096154046356678
1682095660629076500,6.766076416015625,-0.5305144051671028,0.8634615806639194,0.39293782607913014
1682095660649204500,6.78620458984375,-0.10203881723880767,0.8028221107840537,0.6173293497890233
1682095660669333500,6.80633349609375,0.004085954139381647,0.42796296223103997,0.6578127513468265
1682095660689461500,6.82646142578125,-0.010824907005578279,-0.025116321077942847,0.46208384301960465
1682095660709589500,6.846589599609375,0.15190744838789105,-0.2612304312855005,0.7294792266756296
1682095660729718800,6.86671875,0.4082454314567148,-0.3773042036175728,0.9959674323588609
1682095660749846500,6.886846435546875,0.7240912500269711,-0.3087877167522907,0.8288502860099076
1682095660769974500,6.906974609375,0.7715512125991284,-0.07109364387691021,0.36966800965070723
1682095660790102500,6.9271025390625,0.16903846980035303,0.03351180897951126,-0.17172668597102164
1682095660810231800,6.947231689453125,-0.5507569827288389,-0.11824936280548572,-0.1994429604142904
1682095660830359600,6.967359619140625,-0.5784183121144771,0.12834171775281428,-0.15930793390274048
1682095660850487600,6.987487548828125,-0.2233544357471168,0.3807020293623209,-0.34360242502391336
1682095660870616600,7.007616455078125,0.03521642094030976,0.42606618869900703,-0.5173690923899412
1682095660890744600,7.02774462890625,0.3019441344678402,0.6189128195881843,-0.54527182931602
1682095660910872600,7.04787255859375,0.003184621385484934,0.5412929888129234,-0.23645430194735526
1682095660931000600,7.06800048828125,-0.2539319448404014,0.5719108299165964,0.019725860211253166
1682095660951129600,7.088129638671875,-0.44840829582326114,0.4243617228686809,0.15077683692276478
1682095660971257600,7.108257568359375,-0.5943332357354462,0.20107553005218504,-0.0869365251749754
1682095660991385300,7.12838525390625,-0.39230245078504083,-0.138223060297966,0.06391513054966926
1682095661011515100,7.14851513671875,0.08203647817373275,-0.37323476222157476,0.3019441344678402
1682095661031643100,7.16864306640625,0.3653203358352184,-0.37370588686466216,0.1941851860165596
1682095661051771100,7.188771240234375,0.39612485861741004,-0.1252080959022045,-0.35949265259504315
1682095661071900200,7.208900146484375,0.9646844784099609,-0.7945008571624755,-0.6873585793048143
1682095661092028200,7.229028076171875,1.9902029263585805,-1.1240104594260454,-0.6916501390188932
1682095661112156200,7.24915625,2.0616016906619072,-0.4181576075315475,-0.3066261548042297
1682095661132284200,7.2692841796875,0.6532369678638875,0.04488485138714313,0.21496610823869705
1682095661152413200,7.2894130859375,-0.4852946227371692,0.3286474324762821,0.09220657453238963
1682095661172541200,7.309541259765625,-0.9802869750808924,0.3264893776595592,-0.014748071798682212
1682095661192669200,7.329669189453125,-0.9591722908597439,0.07981120333969592,-0.031118191841244695
1682095661212798500,7.349798583984375,-0.36060441322922704,-0.07509703429937362,0.466398783609271
1682095661232926200,7.36992626953125,0.11272453496940434,-0.11836100648641586,0.7999889331847428
1682095661253054200,7.39005419921875,0.007186112111806869,-0.2770557769268751,0.7947188838273286
1682095661273183200,7.410183349609375,-0.09964220442585646,-0.390741192817688,0.44811844603121276
1682095661293311200,7.430311279296875,0.28848727152347564,-0.4528519042938947,0.08142273018956184
1682095661313439200,7.450439208984375,0.5863795733172447,-0.17670973508059978,-0.32104104912579057
1682095661333567200,7.470567138671875,0.5297041847627609,0.3083241908937692,-0.16678455339372156
1682095661353696300,7.4906962890625,-0.02933890720903873,0.49245676945149897,0.1596381887704134
1682095661373824300,7.51082421875,-0.4720470186293125,0.5001549227386712,0.2789455361962318
1682095661393952300,7.5309521484375,-0.44221126781404013,0.12855389919877053,0.3887520648270845
1682095661414081300,7.551081298828125,-0.1739665007870644,-0.1637631597459316,0.4101479040771723
1682095661434209300,7.571209228515625,0.07769421118572353,-0.16090835483670235,0.6288648892819881
1682095661454337000,7.5913369140625,0.10903788234591484,-0.19294658413231372,0.7765759088933467
1682095661474466300,7.61146630859375,0.09546053482703865,-0.4026479037106037,0.6907207492142915
1682095661494594300,7.63159423828125,0.3815945942878723,-0.42853930081427094,0.3263280496180057
1682095661514722300,7.651722412109375,0.5685089855838567,-0.5222042574614286,-0.16968202840089797
1682095661534850000,7.67185009765625,0.5621258604180067,-0.5477396807342767,-0.37409459392130373
1682095661554979300,7.691979248046875,0.5682021115917713,-0.3948170639544725,-0.35247079113423824
1682095661575107300,7.712107421875,0.40217151837050913,-0.398285032325983,-0.13009820603132247
1682095661595235300,7.7322353515625,0.08357252863459289,-0.43787236182689665,-0.30580957772433753
1682095661615364400,7.7523642578125,-0.21094876235611734,-0.39228842225968835,-0.5742196913808584
1682095661635492400,7.772492431640625,-0.16295878456048665,-0.3938508492708206,-0.7269453242838382
1682095661655620400,7.792620361328125,-0.18698489924892783,-0.2840881597816944,-0.653641603142023
1682095661675749400,7.812749267578125,-0.3998053006958216,-0.2613011584341526,-0.46483284946680065
1682095661695877400,7.83287744140625,-0.6018382776033133,-0.2852612952142954,-0.5284522119402885
1682095661716005400,7.85300537109375,-0.6058714786421507,-0.5597738173991441,-0.8622136264294386
1682095661736133400,7.87313330078125,-0.12809146931879223,-0.6068360128253698,-1.2942232337027788
1682095661756262400,7.893262451171875,0.5084129749309271,-0.4134609741479158,-1.2261959916591643
1682095661776390400,7.913390380859375,0.5444429772764444,-0.019951485660672185,-1.3257485450401902
1682095661796518400,7.933518310546875,0.2630097159177065,0.190929983612895,-1.9412609085351227
1682095661816647200,7.953647216796875,0.5204278954386711,-0.08294131805896758,-1.9727134468972682
1682095661836775400,7.973775390625,1.335237965658307,0.13240589845180512,-1.5062959585875273
1682095661856903400,7.9939033203125,0.9399620520204305,0.5285059879541397,-0.37407062852382655
1682095661877032200,8.0140322265625,-0.7944657858490943,0.46904491420388217,0.15160568896234033
1682095661897160200,8.03416015625,-1.9187930561393498,-0.023103812211751937,-0.1641384227991104
1682095661917288200,8.0542880859375,-1.3748124356776474,-0.8013871095448732,-0.26965806789100166
1682095661937416200,8.074416259765625,0.2068817321129143,-0.6246627614170313,-0.24475042112767695
1682095661957545200,8.094545166015624,0.7742659514505416,-0.8843705131798982,0.17573007639348506
1682095661977673200,8.114673095703125,0.25222243750877676,-1.124078263965249,0.06717500912845134
1682095661997801200,8.13480126953125,-0.19252455932796,-1.0037222842693327,-0.175532507994771
1682095662017930200,8.15493017578125,-0.12132175598815083,-0.7808902649611235,-0.3832937994211912
1682095662038058200,8.175058349609374,0.20449564069397747,-0.2339431959092617,-0.47096857574284073
1682095662058186200,8.195186279296875,0.0746020903892815,0.14551847800314427,-0.09934124871790409
1682095662078315300,8.215315185546874,-0.4516991540621966,0.41610535117685793,0.2365355504900217
1682095662098443300,8.235443359375,-0.977613371957466,0.528175148564577,0.4118962090492248
1682095662118571300,8.2555712890625,-1.2224070477049798,0.7560580215215682,0.3219949888497591
1682095662138699300,8.27569921875,-0.9310030850172042,0.6921873146355152,0.2703881357312202
1682095662158828300,8.295828369140626,-0.42477790245413777,0.5508791478037833,0.24382804558575152
1682095662178956300,8.315956298828125,-0.25280674020275473,0.33504970073401924,0.5443547144711017
1682095662199084300,8.336084228515626,-0.666961030377075,0.1993693106561899,0.8926613716632127
1682095662219213300,8.35621337890625,-1.0720926406621933,0.15230302357673645,0.6488625521719456
1682095662239341300,8.37634130859375,-1.2970739469587802,-0.11748480817377567,0.3657254095047712
1682095662259469300,8.39646923828125,-0.8720669119238853,-0.21053543231487273,0.32420974228978156
1682095662279598300,8.416598388671876,-0.20351123276650904,-0.1541658948391676,0.5940297227442264
1682095662299726300,8.436726318359375,0.15004150838553904,-0.015168343037366866,0.8874714018046855
1682095662319854300,8.456854248046875,0.2563590258568525,0.29649814402163027,0.6686077016055584
1682095662339982300,8.476982421875,0.24902517583742736,0.4626590125590563,0.241581727963686
1682095662360111400,8.497111328125,0.2028033767580986,0.4313163643121719,0.1692845535159111
1682095662380239400,8.5172392578125,0.27272403133288026,0.27855273748636245,0.26421792266368865
1682095662400367400,8.537367431640625,0.2982487870812416,0.08877835364937782,0.588213729941845
1682095662420496100,8.55749609375,0.21156974379867313,-0.10099310757815837,0.6951251216530799
1682095662440624000,8.5776240234375,0.08162628993764519,-0.1534557007431984,0.6188818399280309
1682095662460752100,8.597752197265624,-0.038838556960225104,-0.3182499571025371,0.4469716140836477
1682095662480881200,8.617881103515625,0.20973244536891578,-0.3212462163090706,0.43107378772795196
1682095662501009200,8.638009033203126,0.39264951065704223,-0.05103109905719757,0.5257593195945024
1682095662521137200,8.65813720703125,0.2127199367471039,-0.050180035185813904,0.5542348879724741
1682095662541266200,8.67826611328125,0.16816227148771284,0.18842647635936735,0.41860476677715774
1682095662561394200,8.698394287109375,-0.015832213773578404,0.19814298373162745,0.6004062720388174
1682095662581522200,8.718522216796876,0.01822320056334138,0.36326515687108035,0.389851550501585
1682095662601650200,8.738650146484375,0.09961027491763233,0.5613040957063437,0.10225099868476391
1682095662621779200,8.758779296875,0.15772870188727975,0.8275047166198491,0.20263912610709667
1682095662641907200,8.7789072265625,0.07878361385762692,1.019255368965864,0.34614217263460156
1682095662662035200,8.79903515625,-0.08754735054969787,0.8332727786272763,0.45532267832159995
1682095662682164200,8.819164306640625,-0.15336320015415547,0.40436698258817194,0.36846038742661474
1682095662702292200,8.839292236328125,-0.07463131648376584,0.05812836384177208,0.19151275193691253
1682095662722420200,8.859420166015624,0.16050561925470827,-0.15817629952430723,0.2394113981872797
1682095662742549200,8.87954931640625,0.35905367665588855,-0.14602292039394377,0.223211374014616
1682095662762677200,8.89967724609375,0.5894852111823856,-0.01895195322930813,0.07361176417768
1682095662782805200,8.91980517578125,0.7121615966498851,0.39432314295768733,-0.40166590693593024
1682095662802934300,8.939934326171874,0.3942706090528518,0.5937602581530809,-0.529544098830223
1682095662823062300,8.960062255859375,-0.17358195844888685,0.5217828171789646,-0.10293196668624878
1682095662843190300,8.980190185546874,-0.5167629431903362,0.261900877892971,0.3319832989007234
1682095662863318300,9.000318359375,-0.7071417226612567,-0.04481470876038074,0.3449520860671997
1682095662883447300,9.020447265625,-0.7506161227285861,-0.3016226474285126,0.06102525432705879
1682095662903575300,9.0405751953125,-0.3925906200766563,-0.5177490316182375,0.19431319631040095
1682095662923703300,9.060703369140626,0.40779586105830967,-0.13673077591359614,0.5225982252150774
1682095662943832000,9.08083203125,0.7208359745580702,0.24095453597605226,0.7676730559915304
1682095662963960000,9.1009599609375,0.6755829474456608,0.23928046528398988,0.8589894036859274
1682095662984088000,9.121088134765625,0.4744815522998571,0.01737491317093372,0.6405559115976095
1682095663004216800,9.141216796875,0.22936580499112605,0.08285597786307335,0.5046358675450087
1682095663024344800,9.1613447265625,-0.025612580162286756,0.42024435067772864,0.27707681971490383
1682095663044472800,9.181472900390625,-0.20225158809423446,0.19436697232425212,0.21623510526120662
1682095663064601900,9.201601806640625,-0.018584288960695267,-0.12857026581168174,0.1374000534772873
1682095663084729900,9.221729736328125,0.24802140562236308,-0.2095996127694845,0.3297194456219673
1682095663104857900,9.24185791015625,0.25333887431807817,-0.09690262339413165,0.322599384483695
1682095663124987000,9.26198681640625,0.07841887219846248,-0.07900982382893562,0.19490940863788125
1682095663145115000,9.282114990234374,0.1718073499917984,-0.10496376477479934,0.16126666675508022
1682095663165243000,9.302242919921875,0.6479010867286473,-0.3083884883016348,0.051553077104687685
1682095663185371000,9.322370849609374,0.9061614892274141,-0.09461948089301586,-0.14516893391311167
1682095663205500000,9.3425,0.7709165679574013,0.31917233264446254,-0.32573475989997386
1682095663225628000,9.3626279296875,0.23769166172258555,0.5146797071754932,-0.18133797940313814
1682095663245756000,9.382755859375,-0.1877062723260373,0.3744289404422044,-0.10006488681733608
1682095663265885000,9.402885009765624,-0.12298749724328517,0.00897942526936531,-0.14721476052701474
1682095663286013000,9.423012939453125,0.14317165914867072,-0.33297347898185253,-0.09748363815248012
1682095663306141000,9.443140869140626,0.2362568066138774,-0.4609136301964521,-0.23117431571781633
1682095663326270000,9.46327001953125,-0.05408628537673503,-0.5250818587243556,-0.3152808781638741
1682095663346398000,9.48339794921875,0.018770203454233705,-0.5481780721515417,-0.3463561076462269
1682095663366526000,9.50352587890625,0.5887678566932678,-0.4993383456587791,-0.46072132249474523
1682095663386655000,9.523655029296876,0.6988461149375885,-0.7078402263194322,-0.5295528666585684
1682095663406783000,9.543782958984375,0.43812549633774905,-0.8211164768874645,-0.7828755935594439
1682095663426911000,9.563910888671876,-0.09590773060526699,-0.8723819692224264,-0.9122332103565335
1682095663447039000,9.5840390625,-0.3097901352604851,-0.542934910801053,-0.8061576849475502
1682095663467167700,9.604167724609376,-0.39754327404797074,-0.519868507990241,-0.77752108078897
1682095663487295700,9.624295654296875,-0.34811606652345506,-0.6521078177034855,-1.07676121699512
1682095663507424000,9.644424072265625,-0.35564182238578795,-0.8708709801375866,-1.0757084930717944
1682095663527552800,9.664552734375,-0.285664578785561,-0.682950115212798,-1.0861527301967144
1682095663547680800,9.6846806640625,-0.32327213264610616,-0.4748258356928825,-0.9734963650926947
1682095663567808800,9.704808837890624,-0.30530981150865555,-0.35529812351465223,-1.0148457358300684
1682095663587937800,9.724937744140625,-0.1709790824741125,-0.37114392742216584,-0.8850140717804431
1682095663608065800,9.745065673828124,0.0010229133069515229,-0.5655675983697176,-0.6585188537895679
1682095663628193800,9.76519384765625,0.13347849611937998,-0.4093658137887716,-0.5773661727130412
1682095663648321800,9.78532177734375,-0.21507373333163557,-0.15792904676496983,-0.3714426181077957
1682095663668450800,9.805450927734375,-0.5029997177105396,0.14506430449485777,-0.6933072585761547
1682095663688578800,9.825578857421876,-0.43094694647789,0.3518324932307005,-0.6144692841827869
1682095663708706800,9.845706787109375,-0.1110994179856032,0.5663403363078833,-0.5652458190694452
1682095663728836000,9.865836181640624,0.12725516462512312,0.3915758900761604,-0.9037611500874161
1682095663748963800,9.8859638671875,-0.10771386720053851,0.20493746617734432,-1.1406678719773888
1682095663769091800,9.906091796875,-0.5452525400936603,-0.1547317120283842,-0.9019640375375747
1682095663789221000,9.92622119140625,-0.821063285395503,-0.5149620312482118,-0.7895131318777799
1682095663809349000,9.94634912109375,-0.9072071258228271,-1.1073089154720306,-0.4309446083903312
1682095663829476900,9.966476806640625,-0.6427917078256606,-0.960558265325427,-0.7602785618260502
1682095663849606100,9.986606201171876,-0.5511380910009145,-0.8728174380302429,-0.8507116969451308
1682095663869734100,10.006734130859375,-0.2062011294376105,-0.7978571818530559,-0.5757528922975063
1682095663889862100,10.026862060546875,0.4909177963811904,-0.42373745349049563,-0.293012932254374
1682095663909990000,10.046989990234374,0.6767641200542449,-0.4081815724402666,-0.14108838660120962
1682095663930119000,10.067118896484375,0.36966749819405376,-0.33530279871225355,-0.3472264607399702
1682095663950247200,10.0872470703125,-0.010136778610944747,-0.36007658996284003,-0.19153496376872062
1682095663970375200,10.107375244140625,-0.37828788089267906,-0.15220248581171034,-0.10698124207705259
1682095663990504000,10.12750390625,-0.6408687769390642,0.28247487936615945,-0.11566168439984321
1682095664010631700,10.147631591796875,-0.31976445331871506,0.28933073661029335,0.16151538081914185
1682095664030760000,10.167760009765624,0.10709259349703788,0.0974754548460245,0.2002805802822113
1682095664050888700,10.187888671875,0.14644151113219558,-0.22286825966536997,0.23296119913458824
1682095664071016700,10.2080166015625,0.11457688483782112,0.10965981363654136,-0.08625672621726989
1682095664091144700,10.228144775390625,-0.016152020312473175,0.8114578371822834,-0.3854512697160244
1682095664111272700,10.248272705078126,-0.42850890567600725,0.7940577895700931,-0.11880232051312922
1682095664131401700,10.268401611328125,-0.4215057489156723,0.6097936935871839,-0.02518587918281555
1682095664151529700,10.28852978515625,-0.29903431143574416,0.29478198775351044,0.2139969709455967
1682095664171657700,10.30865771484375,-0.15524726033508776,0.1912871264874935,0.5704752441555261
1682095664191786800,10.328786865234376,-0.05132328693680465,0.4469418034672737,0.5546557437330484
1682095664211914800,10.348914794921875,-0.3876811476599425,0.6097387485295533,0.5030728560119867
1682095664232042800,10.369042724609375,-0.5452057783424854,0.4339116415023803,0.4495166223913431
1682095664252171800,10.389171875,0.010102876341342925,0.3513748125910759,0.6813210527062415
1682095664272299800,10.4092998046875,0.4135223489463329,0.0850935276567936,1.016459600767493
1682095664292427800,10.429427734375,0.6007762743949889,0.06257657542228698,1.003759109148383
1682095664312555800,10.4495556640625,0.34888767195045944,0.22845044371187687,1.0672884552508592
1682095664332684800,10.469684814453124,-0.04676525830626487,0.42184243352413175,0.6355804612725973
1682095664352812800,10.489812744140625,-0.1637609677888453,0.41981238900125023,0.47867549685835836
1682095664372940800,10.50994091796875,-0.02129939313828945,0.38888007512092587,0.5305939001441001
1682095664393069800,10.53006982421875,0.13618264051154255,0.290228562232852,0.7521241892039775
1682095664413197800,10.55019775390625,0.21939619964063167,0.340939927816391,1.0825473991811274
1682095664433325800,10.570325927734375,0.18608254358172416,0.13530045084953307,1.00083708422184
1682095664453454800,10.590454833984374,0.19947028681263326,0.09214929138720035,0.8865613012224435
1682095664473582800,10.610582763671875,0.0934376506973058,0.03842003928720951,0.9024258098304271
1682095664493710800,10.6307109375,0.03934314548149705,-0.07028466558158397,0.5783738884508609
1682095664513838800,10.6508388671875,-0.05159048650562763,-0.01600830099284649,0.6809609872221947
1682095664533967600,10.670967529296876,0.11182137558460235,0.016579963400959966,0.7700748564362525
1682095664554095900,10.691095947265625,0.2479302932728082,0.16335165633559226,0.43871290430426596
1682095664574224000,10.711223876953126,0.07439911516308784,0.28335341576635836,0.5230161583662033
1682095664594352600,10.7313525390625,-0.03665880176834762,0.4933639474242925,0.44792555380761623
1682095664614480600,10.751480712890626,-0.3126637544680387,0.41870413549840446,0.3389776878327131
1682095664634608600,10.771608642578125,-0.3464250812292099,0.27240473625063893,0.03153320238292217
1682095664654737700,10.791737548828126,-0.004338321465253829,0.3359650620132685,-0.13326163849830627
1682095664674865700,10.81186572265625,0.085481138734892,0.5295148727357387,0.1325058516949415
1682095664694993700,10.83199365234375,-0.18636252956688404,0.6249135213077068,0.09590192191898822
1682095664715121700,10.85212158203125,-0.5573743550419807,0.2679822436332702,-0.0326689284145832
1682095664735250700,10.872250732421875,-0.41935587740540503,0.17277940989434717,-0.34438276174664495
1682095664755378700,10.892378662109374,0.14123977777063845,0.15746844351589678,-0.11285948646068572
1682095664775506700,10.912506591796875,0.4068612105567008,0.12171966926455496,0.6864514013320208
1682095664795635700,10.9326357421875,0.42147425779886544,0.014624153158068656,0.9456097025185823
1682095664815763700,10.952763671875,-0.10976970375180244,-0.3678232585668564,0.4804612112313509
1682095664835891700,10.9728916015625,-0.4250204059731215,-0.5242629435569047,-0.015743512576818466
1682095664856020700,10.993020751953125,0.1583616660285741,-0.4358358875632286,-0.18868834216594696
1682095664876148700,11.013148681640626,0.7899602911233902,-0.04832593175172806,-0.06939326969981194
1682095664896276700,11.03327685546875,0.8897557133495807,0.3905383637219667,0.1177577798962593
1682095664916405800,11.05340576171875,0.05937332240156829,0.532585950744152,0.11442249799370766
1682095664936533800,11.07353369140625,-0.5130921822557225,0.2704839973211288,0.4617541726738214
1682095664956661800,11.093661865234376,-0.31572365349531173,0.15482406648695468,0.6589630904257298
1682095664976789800,11.113789794921875,0.0034498847255483266,-0.00298632233440876,0.7752291704595089
1682095664996918800,11.133918701171876,0.27720895819459107,0.05685819777548313,0.7689952445060014
1682095665017047000,11.154047119140625,0.16032503852341323,0.1444979027837515,0.53564826092422
1682095665037175000,11.174175048828126,-0.04387826816048473,-0.030661095723509786,0.33642449621856213
1682095665057303800,11.1943037109375,0.21020225483775137,-0.055285833892226216,0.08569616972506046
1682095665077431800,11.214431884765625,0.6184779353022575,-0.11175590913295745,-0.054796004548668856
1682095665097559800,11.234559814453124,0.7215121933192015,-0.0356710328400135,0.11660802533924579
1682095665117688800,11.254688720703125,0.32272743131015447,-0.017622750452160833,0.004531213688850402
1682095665137816800,11.27481689453125,-0.06276420694887638,0.06167874979972839,-0.08807926546931266
1682095665157944800,11.29494482421875,-0.05462937927749008,0.22128245177865027,0.04862637600302696
1682095665178072800,11.31507275390625,0.0926653876831755,0.1678986521154642,0.08947101208865642
1682095665198201900,11.335201904296875,0.16893270787093786,0.15851941387355326,-0.0016039280652999878
1682095665218329900,11.355329833984374,0.10362583070192485,0.09946224474906921,-0.0215346631988883
1682095665238457900,11.375457763671875,0.051329826275445516,-0.07654314145445823,0.04445405875444412
1682095665258587000,11.3955869140625,0.10068919272813945,-0.3269470582991838,-0.14548574477732182
1682095665278715000,11.41571484375,0.1545662923336029,-0.5895049387961626,-0.10038286672532558
1682095665298843000,11.4358427734375,0.29937983693778514,-0.8889145863503217,-0.24559154812693595
1682095665318972000,11.455971923828125,0.5342454449215903,-0.9081102852076292,-0.5150172685667872
1682095665339100000,11.476099853515626,0.5596551229229196,-0.7069844862729311,-0.5272878443360328
1682095665359228000,11.496227783203125,0.5016144738972187,-0.40378187617659567,-0.5088368263661861
1682095665379356000,11.51635595703125,0.3151111110875383,-0.4129992018550634,-0.519570109565556
1682095665399485000,11.53648486328125,0.048815724562667306,-0.5225380194604397,-0.6728431472182274
1682095665419613000,11.556613037109376,-0.09034600482489913,-0.5660714562386274,-0.7315043027624487
1682095665439741000,11.576740966796875,-0.09880111395921558,-0.35032968745231624,-0.9060825787723064
1682095665459870000,11.596869873046876,-0.22184004912879315,-0.15635317575037477,-1.5209133897438645
1682095665479998000,11.616998046875,0.13945406339764593,-0.4025023577600717,-1.9240043610468505
1682095665500126000,11.6371259765625,1.2794476893752813,-1.474906548589468,-1.1226882709115742
1682095665520255000,11.6572548828125,1.699255402201414,-1.3046066805511711,-0.36901743678748605
1682095665540383000,11.677383056640625,0.968158218935132,-0.0565934093594551,-0.6647580404400825
1682095665560511000,11.697510986328124,-0.39908115113973613,0.3095078477203846,-1.0893477268457412
1682095665580639700,11.7176396484375,-1.620515042963624,0.17305998040139675,-0.7533373643860221
1682095665600767700,11.737767822265624,-1.8705232384890318,0.42921500811874863,-0.5702507877498865
1682095665620895700,11.757895751953125,-1.0762146890282631,0.24630641839802264,-0.19956191061884163
1682095665641024000,11.77802392578125,0.13290392936812712,0.2829243766993284,-0.5858741810783743
1682095665661152800,11.79815283203125,0.3313496771723032,0.3018143706083298,-1.1016039818286896
1682095665681280800,11.81828076171875,-0.4883423198699951,0.09624971244335175,-1.0534498995125292
1682095665701408800,11.83840869140625,-0.9346165993392467,-0.4480132320910692,-1.1564224904701113
1682095665721537800,11.858537841796876,-0.23987083239257334,-0.9457727841258049,-0.7570277433365583
1682095665741665800,11.878665771484375,0.526369487382099,-1.0032587584108115,-0.0760737703770399
1682095665761793800,11.898793701171876,0.4212369053790346,-0.8724988736003637,-0.013163140694797038
1682095665781923000,11.918923095703125,-0.37856790341045704,-0.7836421940177679,-0.3326762496009469
1682095665802050800,11.93905078125,-0.764235994214937,-0.5510527508050203,-0.7561530063286424
1682095665822178800,11.9591787109375,-0.15968553504347802,-0.9000339462578296,-0.730030430817604
1682095665842306800,11.979306884765625,0.49934419087767595,-0.9261188201069831,-0.6008832419008017
1682095665862436000,11.99943603515625,0.11114921194408088,-0.5211375050127506,-0.3585153319954872
1682095665882563800,12.019563720703125,-1.0189338088613002,-0.0351309346139431,-0.49206630882918834
1682095665902691800,12.03969189453125,-1.6513929963082075,0.5387298603266477,-0.9435255897209047
1682095665922821000,12.059821044921875,-1.081186632221937,-0.08701602015197277,-0.7181658055007457
1682095665942949000,12.07994921875,0.07729249851703643,-0.1338695412635803,-0.14217618183791636
1682095665963076900,12.100076904296875,0.3732086048670113,0.09653846625685691,0.40879795077294107
1682095665983206100,12.1202060546875,-0.5021789759121835,0.1885948186635971,0.5539908500835299
1682095666003334400,12.14033447265625,-1.3497697643578053,0.3897065890729427,0.1021206503033638
1682095666023462400,12.16046240234375,-1.7176964832991362,0.3313175284683704,-0.2879015805900097
1682095666043590400,12.18059033203125,-1.6153472849369048,0.33427053305506704,-0.0993663831591606
1682095666063719200,12.20071923828125,-1.1148048241853714,0.700574619230628,0.9169239985212683
1682095666083847200,12.22084716796875,-0.9493898055791854,0.549469865527749,1.1279559821814298
1682095666103975400,12.240975341796876,-1.0976970375180244,0.427699927380681,0.5999509294867515
1682095666124104200,12.261104248046875,-1.3415338509321213,0.1483177533328533,0.10349836839735507
1682095666144232200,12.281232177734376,-1.310685123682022,0.14521686470806597,-0.45038054574429986
1682095666164360200,12.301360107421875,-1.1374983750957994,-0.010581015247106551,-0.18416180465221405
1682095666184489200,12.3214892578125,-0.564093434163928,-0.1916132897019386,-0.1985468883574009
1682095666204617200,12.3416171875,-0.03350822878293693,-0.1730178948253393,-0.11427519847750663
1682095666224745200,12.3617451171875,0.03786532801389694,-0.08550093941390514,-0.0013099135547876358
1682095666244874200,12.381874267578125,-0.09538052839338779,0.2920218753904104,-0.41528935861885546
1682095666265002200,12.402002197265626,0.26727329164631664,0.09359598306417465,-0.5225561396390199
1682095666285130200,12.422130126953125,1.1364018120307475,-0.3497825749635696,-0.6119821435421705
1682095666305259300,12.44225927734375,1.782714606654644,-0.45481589784324167,-0.24898995839357374
1682095666325387300,12.46238720703125,1.7714250047467648,-0.2562503047853708,0.03902092778980732
1682095666345515300,12.482515380859375,1.0599041902184485,-0.13789397447407245,0.39697570329308507
1682095666365643300,12.502643310546874,0.2717347280345857,0.07596680287122726,0.36650048553049563
1682095666385772300,12.522772216796875,-0.26582053555473684,0.15211948370337486,0.2672597745776176
1682095666405900300,12.542900390625,-0.39536125383377074,0.3976373820722103,0.2601251003921032
1682095666426028300,12.5630283203125,-0.35327509325444695,0.628372721850872,0.6875497179627418
1682095666446157300,12.5831572265625,-0.3225635825179517,0.652194326943159,0.7083937685489654
1682095666466285300,12.603285400390625,0.06555822158157826,0.38982933866977687,0.7040197912484407
1682095666486413300,12.623413330078124,0.4546797042429447,0.19094225857257843,0.49041795710027214
1682095666506542000,12.6435419921875,0.6982322938881814,0.24522388385832308,0.6295435191959142
1682095666526670300,12.66367041015625,0.6240813082672655,0.2052647984355688,0.7165221299469471
1682095666546798300,12.68379833984375,0.5754604852221906,0.09948562562465667,0.8115063524991274
1682095666566927400,12.70392724609375,0.6864484787225723,0.13955869281589983,0.7711562219321727
1682095666587055000,12.72405517578125,0.7106336564302445,0.33117490512728687,0.7479343362987041
1682095666607183000,12.74418310546875,0.5096154825884849,0.4131991083413362,0.6991232513785361
1682095666627311000,12.76431103515625,0.13273973351605237,0.6340320627868176,0.4810422259896993
1682095666647440400,12.7844404296875,-0.24089316117763518,0.8063537920415401,0.24201252059638498
1682095666667568000,12.804568115234375,-0.556757538317889,0.7008242100775242,0.25554770947396754
1682095666687696100,12.824696044921875,-0.6571206043642014,0.4157838641375303,0.18622925857603548
1682095666707825400,12.844825439453125,-0.5406161124646663,0.0560796146184206,0.41139410474598403
1682095666727953400,12.864953369140625,-0.2497848350983113,-0.007571312037110328,0.4453068957418203
1682095666748081200,12.8850810546875,-0.046215807729959486,-0.00585457124710083,0.24793197377324103
1682095666768210400,12.90521044921875,0.33254509750194844,-0.052613399812579155,0.09650456398725508
1682095666788338400,12.92533837890625,0.6813081201594322,-0.2894821277797222,0.2145195335149765
1682095666808466400,12.945466552734375,0.9552548982203006,-0.012381342667341231,0.22360943342149256
1682095666828594200,12.96559423828125,0.9557026419878005,0.5200882882207631,0.0973012673228979
1682095666848723500,12.985723388671875,0.4468097015202045,0.6460019020438194,0.18261048355698584
1682095666868851500,13.0058515625,0.10677231203410774,0.35659108593463895,0.3105740156471729
1682095666888979500,13.0259794921875,0.17981416736934333,0.2579050862550735,0.6324550227284431
1682095666909108500,13.0461083984375,0.22800036185681818,0.10347732560932636,0.8772200569033622
1682095666929236500,13.066236572265625,0.2631119707157835,0.06601122604608535,0.982742624604702
1682095666949364500,13.086364501953126,0.1683131146678701,0.06291326003074646,0.9085100981801748
1682095666969493500,13.106493408203125,0.18775193809866905,0.13539689696133136,0.7730424740701913
1682095666989621500,13.12662158203125,0.3645581923563033,0.1075450134396553,1.0034744469881056
1682095667009748200,13.146748291015625,0.611662410068512,0.07560673738718032,0.7586994759410619
1682095667029877200,13.166877197265626,0.6411562155783176,-0.0705184743374586,0.6446984182298183
1682095667050005200,13.187005126953125,0.5296563270330429,-0.155528415364027,0.585917727959156
1682095667070133200,13.20713330078125,0.3661187927365303,-0.010360065972805022,0.494062451082468
1682095667090261200,13.22726123046875,0.27994041071878745,0.5190355642974377,0.6353244406849146
1682095667110390300,13.247390380859375,0.27179566444158554,1.126495261979103,0.7489578341275454
1682095667130518300,13.267518310546874,0.011042796673113479,1.1214274571955203,0.5398696780115365
1682095667150646300,13.287646240234375,-0.3745709792613983,0.6605752017974853,0.23362287791371344
1682095667170775300,13.307775390625,-0.5562181707441807,0.1734703147679567,0.06000292554199695
1682095667190903300,13.3279033203125,-0.32965865534543987,0.029929274317622184,0.332448578324914
1682095667211031300,13.34803125,-0.05240004932284355,-0.09769231246709822,0.4369757052481174
1682095667231160000,13.36816015625,0.08976851546419784,-0.2880710919380188,0.28718028057813644
1682095667251288000,13.3882880859375,0.03447393200993538,-0.4639040441840887,0.09603402386605739
1682095667271416000,13.408416015625,-0.005074252790678292,-0.6368968045681714,-0.11375322043001651
1682095667291545000,13.428545166015626,0.24791326907277106,-0.6547732375204562,0.1206423954218626
1682095667311673000,13.448673095703125,0.5813228013843298,-0.45979719338715075,0.3178761553540826
1682095667331801000,13.468801025390626,0.5453360901912674,-0.5308008208930493,0.22418372617810964
1682095667351929000,13.48892919921875,0.4112041351318359,-0.6269231075644492,-0.09296294585764407
1682095667372058000,13.50905810546875,0.21588731473684308,-0.5717670375317335,-0.23563538677990437
1682095667392186000,13.52918603515625,0.11022504630386828,-0.5480050536721944,-0.40714901452213526
1682095667412314000,13.549314208984375,-0.0075087681949138636,-0.5220926137804984,-0.4925286656439304
1682095667432443100,13.569443115234375,-0.20916178760780021,-0.6383978567808866,-0.6910895825266837
1682095667452571100,13.589571044921875,-0.29497603075457735,-0.667452101829648,-0.9253285465121268
1682095667472699100,13.60969921875,-0.3895844239979982,-0.6083265436440706,-1.1222045790478588
1682095667492828200,13.629828125,-0.5298024575054645,-0.5268389315247536,-1.3427610546395181
1682095667512956200,13.6499560546875,-0.6229653098493814,-0.6471960802644491,-1.4663728212609886
1682095667533084200,13.670084228515625,-0.6243535493373871,-0.7963479463338852,-1.774663109885156
1682095667553213200,13.690213134765624,-0.44211244708206504,-0.9425234269410371,-1.8489421057999134
1682095667573341200,13.710341064453125,-0.27004500311566515,-0.8953793984502554,-1.9292893157124518
1682095667593469200,13.73046923828125,-0.38484219790697094,-0.36737493027746676,-2.0405951429903504
1682095667613597200,13.75059716796875,-0.6950421195447445,-0.45438159807920453,-2.246694346423447
1682095667633726200,13.770726318359374,-0.9645499653100967,-0.9481792607456445,-2.4420880314469335
1682095667653854200,13.790854248046875,-0.11453359368536621,-0.8703080855578184,-2.3992227031886575
1682095667673982200,13.810982177734376,0.5135960035920143,-0.43794542706310746,-1.6542331881701946
1682095667694111200,13.831111328125,0.5870721952239051,0.25535131011903284,-1.2777429312840103
1682095667714239200,13.8512392578125,0.011835983744263649,0.48243631069660187,-1.0451964504301547
1682095667734367200,13.8713671875,-0.49125086426045744,0.5197422512620687,-0.5951560964256525
1682095667754496000,13.89149609375,-0.5810445689648389,0.3834107037991285,-0.28074352552890774
1682095667774624000,13.9116240234375,-0.7173959901720285,-0.12756722624897956,-0.14568682030737398
1682095667794752000,13.931751953125,-0.6272375803411007,-0.49352819807529447,-0.3700841892361641
1682095667814881000,13.951881103515625,-0.21978308006636796,-0.8523135791838169,0.23645897812247274
1682095667835009000,13.972009033203125,0.14077274478077886,-0.8541220899105072,0.2125152079552412
1682095667855137000,13.992136962890624,-0.6018528541179373,-1.2096470079183579,0.08423398821800947
1682095667875265000,14.01226513671875,-0.9141588446568697,-0.9017664691388606,-0.22565613681823013
1682095667895394000,14.03239404296875,-0.7326806530654429,-0.7030623443931341,-0.6284875804021954
1682095667915522000,14.05252197265625,-0.08065291486084461,-0.6200058755218982,-0.863454858662188
1682095667935650000,14.072650146484374,0.5103238500535487,-0.2863023286998272,-0.6339411696329712
1682095667955779300,14.092779296875,0.6676338881373405,0.09184358643889427,-0.3299544234216213
1682095667975907000,14.112906982421874,0.3174409788072109,0.36535365358293054,-0.568649782294035
1682095667996035000,14.13303515625,-0.20062537513189016,0.3158452340483665,-0.7359218269437551
1682095668016164000,14.1531640625,-0.426004156313464,0.289350025832653,-0.7899974082633853
1682095668036292000,14.1732919921875,-0.5609685801416635,0.35499534117579457,-0.2799669881984591
1682095668056420000,14.193420166015626,-0.5116016149044037,0.7720067012816667,-0.26139351289272306
1682095668076549000,14.213549072265625,-0.5077964504677802,0.5289373651087284,-0.4648182364195585
1682095668096677000,14.233677001953126,-0.6263971109289675,-0.4301379681825638,-0.7349754860043525
1682095668116805000,14.25380517578125,-0.20576398012936115,-0.6969061598509549,-0.5787088194936514
1682095668136934100,14.27393408203125,0.020708514573052523,-0.5389268442034721,0.14466332247853278
1682095668157062100,14.294062255859375,0.1746557251602411,-0.09401099360585212,0.5765151088416576
1682095668177190100,14.314190185546876,0.23991467153429982,0.36424423103630543,0.6757879684984683
1682095668197318100,14.334318115234375,0.3393693174988031,0.6864800429046154,0.7518506329596042
1682095668217447200,14.354447265625,0.21873510538339613,0.569824671292305,0.6374538539290427
1682095668237575200,14.3745751953125,0.2669575767606497,0.5868360118478536,0.6390303094655275
1682095668257703200,14.394703125,0.06232172387838363,0.6462766273319721,1.096375433525443
1682095668277832000,14.41483203125,-0.01845167555697262,0.6187281106710434,1.2873141849666834
1682095668297960000,14.4349599609375,0.05567753662355244,0.3864858734607696,1.2052566640049218
1682095668318088000,14.455087890625,0.2588088301617652,0.1440051508307457,0.9600503158032894
1682095668338217000,14.475217041015625,0.3597912702154368,0.10085808302164077,0.779039084136486
1682095668358345000,14.495344970703124,0.29835875026173886,0.17245032407045363,0.7060773083001375
1682095668378473000,14.515472900390625,0.04294197369106113,0.2770370722264051,0.7218243280082941
1682095668398602000,14.53560205078125,-0.21766309223771094,0.23847382507622242,0.7437269477367401
1682095668418730000,14.55572998046875,-0.21317637527771294,0.1635842960476875,0.6910498350381851
1682095668438858000,14.57585791015625,-0.10198219168074428,0.11668109057545661,0.7648749497056007
1682095668458987000,14.595987060546875,-0.013409516671299934,0.16284662942290304,0.8922451920777559
1682095668479115000,14.616114990234376,-0.03918225583136081,0.19260931500196457,0.7937444858372211
1682095668499243000,14.636242919921875,-0.18131752113699912,0.3568716564416885,0.7341922266721725
1682095668519371000,14.65637109375,-0.327356771611236,0.20105331822037695,0.7247896075546741
1682095668539500000,14.6765,-0.17549802120327948,0.10209785394966601,0.4417185158610344
1682095668559628000,14.6966279296875,0.007543839508295059,0.15178279909491538,0.3480938912242651
1682095668579756000,14.716756103515625,-0.11227153050489723,-0.10414894126057624,0.3121089701294899
1682095668599885300,14.73688525390625,-0.2665630244851112,-0.32783494704961774,-0.004104512709379196
1682095668620013000,14.757012939453125,-0.32136896590590475,-0.2728852132439613,-0.1275175418883562
1682095668640141000,14.77714111328125,-0.30236031405329705,-0.3413134373039007,-0.3029436668992042
1682095668660270300,14.797270263671875,-0.19309914434552192,-0.2787725177168846,-0.47953825116753573
1682095668680398300,14.8173984375,-0.10564644980933517,-0.056177814295887946,-0.48756549027860163
1682095668700526000,14.837526123046874,-0.3252677269101143,0.3032289135813713,-0.6063409227848052
1682095668720655000,14.857655029296875,-0.07450316005945205,0.3310428031802177,-1.017254550537467
1682095668740783000,14.877783203125,0.3310965791940689,0.1286672964453697,-0.7562427304387093
1682095668760911000,14.8979111328125,0.2606476994941011,0.21511399227678774,0.19972762257456778
1682095668781040000,14.9180400390625,-0.20632687470912933,0.39723698457777495,0.49081075581014155
1682095668801168100,14.938168212890625,-0.3667634838482365,0.381292980992794,0.3385276059776544
1682095668821296000,14.958296142578124,-0.002006079125404358,0.11390461159944533,0.05407587358057499
1682095668841424100,14.978424072265625,0.679427201783657,0.05043956290483474,0.1640910765260458
1682095668861553200,14.99855322265625,0.9856646495312452,0.3242471516907215,0.44806642358303067
1682095668881681200,15.01868115234375,0.9687994394481182,0.46684068215787405,0.5022948573768139
1682095668901809200,15.03880908203125,0.6535194380670786,0.47602527461051936,0.4459726661741733
1682095668921938200,15.058938232421875,0.08857669359743595,0.25237492465674877,0.6460802279770373
1682095668942066200,15.079066162109376,-0.28269933577179907,-0.08508826695978641,0.6833458365321159
1682095668962194200,15.099194091796875,-0.2978133182734251,-0.2579670455753803,0.5281681343019008
1682095668982323200,15.1193232421875,-0.0933972090890631,-0.19586685549318789,0.34430209772586823
1682095669002452000,15.139451904296875,0.00414544750796631,-0.19032324989140031,0.3130097183614969
1682095669022580000,15.159580078125,0.12280043197227641,-0.1466758313447237,0.3733037358045578
1682095669042709000,15.179708984375,0.1850724714900367,0.11480711339712142,0.5024374807178974
1682095669062837000,15.1998369140625,0.15785245613111182,0.2701122413992882,0.3781909233242273
1682095669082965000,15.219965087890625,0.03611877660751343,0.30339667136371135,0.15953063674271106
1682095669103093800,15.24009375,-0.017834922764962537,0.5375988104701042,0.14355682254135607
1682095669123221800,15.2602216796875,-0.11812135251164435,0.8445692486673593,0.18721885413527486
1682095669143349800,15.280349853515625,-0.2309054356485605,0.6208569393932819,0.3597609481424093
1682095669163478000,15.30047802734375,-0.11129705031639896,0.22353695270717142,0.23787585918307302
1682095669183606800,15.320606689453125,-0.0876268637930043,-0.2646376093804836,0.37992227716147897
1682095669203734800,15.34073486328125,-0.14867080455422402,-0.5153899012714624,0.5336237693592906
1682095669223862800,15.36086279296875,0.03138533661114052,-0.5485667792081833,0.6029886897474527
1682095669243991800,15.38099169921875,0.14305709285829216,-0.563615879780054,0.7932517338842153
1682095669264119800,15.401119873046875,0.2508697807908058,-0.41064007150828835,0.6446569171756505
1682095669284247800,15.421247802734374,0.10545943933725356,-0.25415362476706505,0.626675562544167
1682095669304376800,15.441376953125,0.28111761953830716,-0.24147359141409397,0.08950316079258919
1682095669324504800,15.4615048828125,0.45636893597152084,-0.24642273825407027,-0.3069116937473416
1682095669344632800,15.4816328125,0.3620668869972229,-0.2775748323649168,-0.46501580481827254
1682095669364761900,15.501761962890624,0.37818453011605885,-0.27554069618880744,-0.5832230820477009
1682095669384889900,15.521889892578125,0.08061959711313248,-0.4186959521919489,-0.7121043135046958
1682095669405017900,15.542017822265626,-0.05866963111162185,-0.4711328263938427,-1.0567334512278437
1682095669425147000,15.56214697265625,-0.07187635521981865,-0.6071066464602947,-1.3906605776727199
1682095669445275000,15.58227490234375,-0.03091771909939125,-0.6994757180780172,-1.407754920336604
1682095669465403000,15.60240283203125,0.05413900194466114,-0.5175479560881853,-1.441203893212974
1682095669485532000,15.622531982421876,0.1684475181698799,-0.4012193322122097,-1.6234142715364694
1682095669505660000,15.642659912109375,0.2358072362154722,-0.5275339280515909,-1.7166113184109328
1682095669525788000,15.662787841796876,-0.10613805098487064,-0.7022317387878895,-1.6334128107205033
1682095669545916000,15.682916015625,-0.5596352857112884,-0.6293067878305911,-1.4087033071026205
1682095669566045000,15.703044921875,-0.9057856416523457,-0.4455781138986349,-1.369671565657854
1682095669586173000,15.7231728515625,-0.9220938023746013,-0.3927238910675049,-1.374624804151058
1682095669606301000,15.743301025390625,-0.7045972988754511,-0.6148784495055675,-1.2345254285871983
1682095669626429700,15.7634296875,-0.5181231256276368,-0.7297182961285114,-0.9990639370694756
1682095669646557700,15.7835576171875,-0.4277583795696497,-0.6075064594328403,-1.132685641051829
1682095669666685700,15.803685791015624,-0.5134019423246383,-0.5203063148856163,-1.5861229440182447
1682095669686814700,15.823814697265625,-0.29226677179588,-0.719797206094861,-1.844069531327486
1682095669706942700,15.843942626953124,0.550564675027132,-0.5304214661866427,-1.6266250502765178
1682095669727070700,15.86407080078125,1.000627825385332,0.03210544931292534,-1.4671382526755332
1682095669747199700,15.88419970703125,0.8340414249122142,0.6032096390217543,-1.3747697655797004
1682095669767327700,15.90432763671875,-0.17475387003878132,0.21616204002499578,-1.374886085435748
1682095669787455700,15.924455810546876,-0.8824000898897647,-0.28717911153435705,-1.3837816318139433
1682095669807583700,15.944583740234375,-1.0910346570193767,-0.6814443868249654,-1.0019847929522394
1682095669827712800,15.964712646484376,-0.8037620219826698,-0.8120394364625215,-0.7446212662279605
1682095669847840800,15.9848408203125,-0.5095896905601024,-1.038482047483325,-0.7525017903447151
1682095669867968800,16.00496875,-0.4540092211028561,-1.2744962044477461,-0.9484367426380514
1682095669888097800,16.025097900390627,-0.2035135343214497,-1.1696125191718338,-0.9626052609831094
1682095669908225800,16.045225830078124,0.07867606182992458,-1.0683172137767076,-0.673791241723299
1682095669928353800,16.065353759765625,0.46103871788084505,-0.7789081512331962,-0.5810036524325609
1682095669948482800,16.08548291015625,0.5788093937912956,-0.5907710132092238,-0.6172729434266686
1682095669968610800,16.10561083984375,0.3408540396312251,-0.44895548137724395,-0.6476359329864383
1682095669988738800,16.12573876953125,0.2764876216500997,0.12409458170235156,-0.6001970132023096
1682095670008867600,16.14586767578125,-0.09226564777586609,0.5702133783489466,-0.17729338018745183
1682095670028995600,16.16599560546875,-0.4649836561143398,0.6874965264707803,-0.10820903030633926
1682095670049123600,16.18612353515625,-0.6683037502229213,0.6619640258073807,-0.2090507467150688
1682095670069252600,16.206252685546875,-0.6995172191321849,0.729823510068655,-0.15900807417333124
1682095670089380600,16.226380615234376,-0.6548387039721012,1.1880483395725487,0.21528759527802466
1682095670109508600,16.246508544921873,-0.8754483710557222,1.1029939748823643,0.5981055938810109
1682095670129637400,16.266637451171874,-0.8649690626174211,0.8354618131041527,0.7325701784282922
1682095670149765400,16.286765380859375,-0.7309667618196457,0.4991951377958059,0.9671312139749526
1682095670169893400,16.306893310546876,-0.36489659399781377,0.25851824971735476,1.4336276127398013
1682095670190021600,16.327021728515625,0.10601765774190425,0.3844610896348953,1.4404460605829954
1682095670210150400,16.347150390625,0.3135235131025314,0.439438295969367,1.4318927517712114
1682095670230278400,16.3672783203125,0.29534901051912454,0.35367724431455133,1.3641618623256682
1682095670250406400,16.387406494140624,0.4482300166469067,0.5160889894515276,1.59221190854311
1682095670270535400,16.407535400390625,0.46679519904833283,0.5626543412715196,1.7193571099877356
1682095670290663400,16.427663330078126,0.4540647872149944,0.7111854450941085,1.6115408783912657
1682095670310791400,16.44779150390625,0.48119003696255386,0.7352385208547115,1.2562392477452755
1682095670330920400,16.46792041015625,0.3268319805521518,0.6535743831247091,1.0096996051132678
1682095670351048400,16.48804833984375,0.20418763419073074,0.6245213071197271,1.1277239269912243
1682095670371176400,16.508176513671874,0.0743448642252013,0.6120400112092494,1.1955962707340717
1682095670391305500,16.528305419921875,-0.0912578224401921,0.48189504342675205,1.2580664631724356
1682095670411433500,16.54843359375,-0.003969415087625384,0.2846650828868151,0.9362713808089494
1682095670431561500,16.5685615234375,0.208241220430471,0.11490706664025784,0.8146949194073677
1682095670451690500,16.5886904296875,0.3507183214437216,0.016941197928786275,0.7623223426133394
1682095670471818500,16.608818603515626,0.27510175678227095,-0.07641220855116844,0.6853045693844556
1682095670491946500,16.628946533203123,-0.03448386888206005,-0.2505599841892719,0.5033996037483215
1682095670512075500,16.649075439453124,-0.10411094733774662,-0.3073673285603523,0.18150515266358852
1682095670532203500,16.66920361328125,0.20239187334775924,-0.2868921112865209,-0.17955343407392502
1682095670552331500,16.68933154296875,0.5372212093293667,-0.2714928821027279,-0.24413608862161634
1682095670572460300,16.709460205078123,0.790014651659131,-0.15472528228759766,-0.37755028733313084
1682095670592588500,16.729588623046876,0.6537170064657927,-0.110852238291502,-0.47899756841957564
1682095670612716500,16.749716552734377,0.2074129529127851,-0.1769482200115919,-0.42922611403465266
1682095670632844500,16.769844482421874,0.01239065848495811,-0.1172393089801073,-0.36297114236056804
1682095670652973300,16.789973388671875,0.1554717167407274,0.06257248376905918,-0.23597148686647415
1682095670673101300,16.810101318359376,0.29058691068384795,0.5014040460169316,-0.5203063148856163
1682095670693229300,16.830229248046876,0.3775117088884115,1.0913017835229635,-0.7827011137753724
1682095670713358300,16.8503583984375,0.06222003533588722,1.2196937701582908,-0.5434487055420876
1682095670733486300,16.870486328125,-0.3420715621948242,1.0406909557044506,0.10417290665805339
1682095670753614300,16.8906142578125,-0.7118290036946535,0.5573112266778946,0.8424088557630777
1682095670773743400,16.910743408203125,-0.5589747759759426,0.03380465444624424,0.5165417016550898
1682095670793871400,16.930871337890625,-0.34314591342806816,-0.47926294135749337,0.020354513503611088
1682095670813999400,16.950999267578126,-0.0029226185815874484,-0.9119593618512153,-0.15463468139469622
1682095670834128400,16.97112841796875,0.5768821885883808,-0.7044792254537343,-0.1110655887812376
1682095670854256400,16.99125634765625,0.8486836982488631,-0.4685299504190683,-0.04946458039283752
1682095670874384400,17.01138427734375,0.9561983165502548,-0.28742344168424605,-0.415467345534265
1682095670894513700,17.031513671875,0.5953612636089325,-0.486637854039669,-0.41565848419219253
1682095670914641400,17.051641357421875,0.3673568100988865,-0.3189619047641754,0.014158873733878134
1682095670934769400,17.071769287109376,-0.06186345871686935,-0.2083534121006727,0.596794511282444
1682095670954898700,17.091898681640625,-0.48259296256303785,-0.2296943062931299,0.7709805731043219
1682095670975026700,17.112026611328126,-0.7287900753676891,-0.4000894513994455,0.4668140864118933
1682095670995154400,17.132154541015623,-0.6135457395970821,-0.6075567283153533,0.06102583884894847
1682095671015283200,17.152283203125,-0.08594109352999366,-0.37682489566802974,0.02707154679894447
1682095671035411200,17.1724111328125,0.2696469437087886,0.02245440839231014,0.09364917455613612
1682095671055539200,17.192539306640626,0.17444820162309332,0.04926642747223377,-0.032871172988414764
1682095671075667200,17.212667236328127,-0.19408347920775412,0.1511246274471283,-0.5037590847104787
1682095671095796200,17.232796142578124,-0.4252373366594314,0.2943453499019146,-0.7010173945620656
1682095671115924200,17.25292431640625,-0.40348610810041424,0.4805781156092882,-0.4604045116305351
1682095671136052200,17.27305224609375,-0.3833704083213582,0.38289866262376304,-0.2579050862550735
1682095671156181000,17.293180908203126,-0.48921559557318683,0.02586217100918293,-0.28188363547474143
1682095671176309000,17.31330908203125,-0.38747020832300183,-0.19305822781324386,-0.21978315313160418
1682095671196437200,17.333437255859376,-0.2008534300004132,-0.28748014030754565,0.014012158739566802
1682095671216566000,17.35356591796875,0.020923527296911923,-0.3885369607716799,0.09865648132413625
1682095671236694000,17.373694091796875,0.34754385612607,-0.3817383866727352,0.2558227270230651
1682095671256822000,17.393822021484375,0.6693816085875034,-0.3471703466385603,0.2560693952605128
1682095671276951300,17.413951416015625,0.8099170374810695,-0.32623277254998684,0.22611264841407536
1682095671297079000,17.4340791015625,0.7895031950056552,-0.3741039462715387,-0.0726280138373375
1682095671317207000,17.45420703125,0.6445429354071617,-0.42941608364880085,-0.487307423864305
1682095671337336300,17.47433642578125,0.41832478079199786,-0.4946674312382936,-0.7149468434542418
1682095671357464300,17.49446435546875,0.4175146334528923,-0.3129676327854395,-0.5075906256973743
1682095671377592000,17.514592041015625,0.21441198148727417,-0.37168870182335373,-0.4343763364046812
1682095671397721300,17.534721435546874,-0.00135024556517601,-0.5407084669232368,-0.7578586412027478
1682095671417849300,17.554849365234375,-0.06857261923300102,-0.5249310520768166,-1.2194833422780036
1682095671437977300,17.574977294921876,-0.28364859932065006,-0.7434037071317434,-1.6274512719675898
1682095671458106400,17.5951064453125,-0.15942717636823653,-0.6344242769747972,-1.7137839860305188
1682095671478234400,17.615234375,0.053455714121926574,-0.5708399858146905,-1.6745228197440505
1682095671498362400,17.6353623046875,0.22516835330128668,-0.5705582462638616,-1.6172729923024773
1682095671518490400,17.655490478515624,0.1541992125868797,-0.7582733594834804,-1.522816593016684
1682095671538619400,17.675619384765625,-0.0001344217683188617,-0.7931453509002924,-1.5377306690320371
1682095671558747400,17.695747314453126,-0.19201777884960172,-0.7843313453257084,-1.3319976685628294
1682095671578875400,17.71587548828125,-0.2956079354499467,-0.45067865190804,-1.181253564865887
1682095671599004200,17.736004150390624,-0.5370294861495495,-0.346850028643012,-0.8974427607208489
1682095671619132200,17.756132080078125,-0.5853776297330856,-0.28803777419030663,-0.6339101899728179
1682095671639260400,17.776260498046874,-0.3642775487840175,-0.1458954946219921,-0.451085186882317
1682095671659389200,17.79638916015625,-0.15131051454120314,-0.0335667540371418,-0.302901289062202
1682095671679517200,17.81651708984375,0.029754502272605895,0.2692921571880579,-0.5046525264188647
1682095671699645200,17.836645263671876,0.025384616625308987,0.5738759925097227,-0.6825389040634036
1682095671719774200,17.856774169921874,-0.2700444368600845,0.5802262383192778,-0.6387433092176914
1682095671739902200,17.876902099609374,-0.4311211340010166,0.5478285280615091,-0.595867459565401
1682095671760030200,17.8970302734375,-0.5805050552606582,0.1907207247763872,-0.6433434964895248
1682095671780159200,17.9171591796875,-0.6460299590945243,-0.2224707847803831,-0.7099027118071913
1682095671800287200,17.937287353515625,-0.701356124997139,-0.5123199923068285,-0.6997159565746783
1682095671820415200,17.957415283203126,-0.7153992633968591,-0.6311205592542887,-0.4960705760344863
1682095671840544300,17.977544189453123,-0.5428033933758736,-0.4704267239511013,-0.3831052911117673
1682095671860672300,17.99767236328125,-0.27985446773469447,-0.6641425388902426,-0.3076899846434593
1682095671880800300,18.01780029296875,0.0824655172407627,-0.8234493037492037,-0.39883419064134357
1682095671900929300,18.03792919921875,0.1617009847854264,-0.8573772923141717,-0.2909948704302311
1682095671921057300,18.058057373046875,-0.0770978527277708,-0.7705857285678386,-0.05222615406066179
1682095671941185300,18.078185302734376,0.036005379360914226,-0.3935772930264473,0.2745449631497264
1682095671961314300,18.098314208984377,0.24670098893987014,-0.06836918734908104,0.4168374648436904
1682095671981442300,18.1184423828125,0.3907096286356449,0.3165606888413429,0.43203415719270705
1682095672001570300,18.1385703125,0.31902211051881313,0.6968026994764804,0.37356501708924766
1682095672021700000,18.1587001953125,-0.04202365326974541,0.7772218055814504,0.2636491828650236
1682095672041828000,18.178828125,-0.4342787212491035,0.927288448408246,0.35588264540433884
1682095672061956000,18.1989560546875,-0.627298370617628,1.0129337647289036,0.6067112174019217
1682095672082084000,18.219083984375,-0.5430582449197768,0.9617974517315625,0.5656605373501777
1682095672102213000,18.239213134765624,-0.47722529805004593,0.7815934447944164,0.462185842089355
1682095672122341000,18.259341064453125,-0.36564182287454605,0.6635182695120573,0.4293889033809304
1682095672142469000,18.27946923828125,-0.3504331478267908,0.6842793179899453,0.5905713989838958
1682095672162598100,18.29959814453125,-0.5582891317993403,0.5050070389449596,0.8664131239458918
1682095672182726100,18.31972607421875,-0.5602934573590755,0.3311620456457138,0.7160618189588188
1682095672202854100,18.339854248046876,-0.4173918838560581,0.06962357132434845,0.5973305178552866
1682095672222983200,18.359983154296874,-0.23777062697662038,-0.13056523902118206,0.7653449053049087
1682095672243111200,18.380111083984374,0.05094575886130333,0.017772972577810287,0.8990788374900818
1682095672263239200,18.4002392578125,0.14797816438125447,0.25142098493278026,1.1265478689491748
1682095672283368200,18.4203681640625,0.10326516242967917,0.15447802952826023,1.1688672537624836
1682095672303496200,18.44049609375,0.15182373389350248,-0.09292904358804226,0.916135770753026
1682095672323624200,18.460624267578126,0.4886860552737489,-0.1045955159842968,1.0641717845350502
1682095672343753200,18.480753173828123,0.7130991697609425,0.07662848165035248,1.2022060442626477
1682095672363881200,18.500881103515624,0.408536961749196,0.1656891593724489,0.923560367795825
1682095672384009200,18.52100927734375,-0.20692074894905088,0.12679215022325516,0.6703191816985606
1682095672404138000,18.541137939453126,-0.59338908675313,0.07346271109580993,0.473500724568963
1682095672424266000,18.561265869140627,-0.712391313752532,-0.08736088806688785,0.324143691316247
1682095672444394000,18.58139404296875,-0.44432080731391904,-0.31247663439810275,0.19077157818078994
1682095672464523000,18.60152294921875,-0.0497270307213068,-0.3246101397842169,-0.10253566084504127
1682095672484651000,18.621651123046874,-0.08347906906432472,-0.24043314245045183,0.12131459559500217
1682095672504779000,18.641779052734375,-0.16918460027277468,-0.13441782279610634,0.0002659574598073959
1682095672524908000,18.661907958984376,-0.114912327337265,0.021242694514989852,0.0033396658167243
1682095672545036000,18.6820361328125,-0.10624620580077171,0.06367196944355964,0.11356032820641994
1682095672565164000,18.7021640625,-0.18014847735762596,0.10138415272235869,0.13162322364151477
1682095672585293000,18.72229296875,-0.1795838292121887,0.01784603781402111,0.19759207185059785
1682095672605421000,18.742421142578124,0.12665186496973038,0.4113806607425213,-0.12282850728929041
1682095672625549000,18.762549072265625,0.5208604416370392,1.0224217240422964,-0.6754091983139514
1682095672645678000,18.782677978515625,0.3712900578945875,1.5167472099751234,-0.7478495806246995
1682095672665806000,18.80280615234375,-0.2833013933181763,1.101578847387433,-0.01359656367599964
1682095672685934000,18.82293408203125,-0.7413374222517013,0.4698258354485035,0.7668465420395135
1682095672706063000,18.84306298828125,-0.7382827108561992,-0.18602935208976268,0.8720537601813674
1682095672726191000,18.863191162109374,-0.5332710103988647,-0.352758375903964,0.4118056081563234
1682095672746319000,18.883319091796874,-0.08433189563453197,-0.3605371932119131,-0.06880816328823566
1682095672766448000,18.9034482421875,0.3879857566297054,-0.33196400967836376,-0.14302812249213456
1682095672786576100,18.923576171875,0.6672457656025886,-0.2830050407201051,0.24122663091570137
1682095672806704000,18.9437041015625,0.9688935474723577,-0.02691664849817753,0.4844920741826296
1682095672826832100,18.96383203125,0.9843471371918916,0.05162263520956039,0.40956455123126506
1682095672846961000,18.9839609375,0.6979501159459353,0.0009521861582994461,0.16329758806079625
1682095672867089200,19.004089111328124,0.18859248057603836,-0.021534955459833145,0.18622984309792517
1682095672887217200,19.024217041015625,-0.41898412148356434,-0.13921791655421256,0.6324699280366302
1682095672907346000,19.044345947265626,-0.4931646254599094,-0.13432079216241835,1.0840481591328979
1682095672927474000,19.064473876953127,-0.22513678911924362,-0.1645095941990614,1.0980071263805031
1682095672947602000,19.084601806640624,0.1824690292596817,-0.14853051930069922,1.0148346299141644
1682095672967731000,19.10473095703125,0.6444599332988262,0.08314882332980632,0.8067962751120329
1682095672987859000,19.12485888671875,0.8353279575914144,0.07330196757614613,0.7307853408381343
1682095673007987000,19.144987060546875,0.8765227222889661,0.1271381871819496,0.540948705419898
1682095673028116200,19.1651162109375,0.5212275213837624,0.19745617051124573,0.2993105710938573
1682095673048244000,19.185243896484376,0.02377718142867088,0.36244215005040165,0.07574000837802887
1682095673068372000,19.2053720703125,-0.3723486270368099,0.4774310497552156,0.02801321156322956
1682095673088501200,19.225501220703126,-0.33316461763978,0.42600422937870025,0.22737843056619167
1682095673108629200,19.245629150390624,-0.05788403369188309,0.17490297791957854,0.32174510574191806
1682095673128757000,19.265757080078124,0.22597265542149542,-0.1397480779081583,0.25186522156894203
1682095673148886300,19.28588623046875,0.3863724762141704,-0.3186965318262577,0.18988076682090757
1682095673169014300,19.30601416015625,0.4117372190952301,-0.3208189308077097,0.12254267608523368
1682095673189142300,19.326142333984375,0.5454208823978901,-0.3562666762858629,-0.0281464825540781
1682095673209271300,19.346271240234376,0.6369102485716343,-0.4639467142820358,-0.1844201633274555
1682095673229399300,19.3663994140625,0.5976870762079953,-0.539298015603423,-0.333500425465405
1682095673249527300,19.38652734375,0.4521510625481605,-0.45004970635473723,-0.5532698423326016
1682095673269656000,19.406656005859375,0.285034500721097,-0.40206045921146866,-0.7264522800698876
1682095673289784300,19.426784423828124,0.09769581959843635,-0.5051251123666763,-0.8535185710594058
1682095673309912300,19.446912353515625,0.13909984313249588,-0.676551354086399,-0.8761758085474372
1682095673330041000,19.467041015625,0.20117080712020396,-0.5967676232755184,-0.8278329256609082
1682095673350169000,19.487169189453127,0.09806289934515952,-0.4166501255780458,-0.7305082774624228
1682095673370297000,19.507297119140624,0.046694531157612795,-0.43792029262185095,-0.7242913026437163
1682095673390426000,19.527426025390625,0.003902272702124901,-0.5272878443360328,-0.8218202412426471
1682095673410554000,19.54755419921875,0.029834577204915693,-0.5594488232284784,-0.8742077233448624
1682095673430682000,19.56768212890625,0.0893500160574913,-0.5027466927975416,-0.8777084249421954
1682095673450811100,19.58781103515625,-0.0611006530842511,-0.412848979729414,-0.9004647388905286
1682095673470939100,19.607939208984376,-0.15448036761581896,-0.26999825963079926,-1.0168266805142163
1682095673491067100,19.628067138671874,-0.19829086776971816,-0.13550327994525432,-0.8151759809225797
1682095673511196200,19.648196044921875,-0.36708676098585125,-0.23860651154518125,-0.47961599257886406
1682095673531324200,19.66832421875,-0.28784312840104104,-0.09906944603919983,-0.5648819541931152
1682095673551452200,19.6884521484375,-0.15322422094172797,0.2222130106270313,-0.6299085531160235
1682095673571580200,19.708580078125,-0.04360883096880279,0.6732312697529792,-0.5564920192494988
1682095673591709200,19.728709228515626,0.019902413221402092,0.820986713027954,-0.48045302792489525
1682095673611837200,19.748837158203123,-0.35205636511445043,0.5093272402316331,-0.296847395850718
1682095673631965200,19.768965087890624,-0.6897270620018243,0.14090367768406867,-0.27183278158158064
1682095673652094200,19.78909423828125,-0.9769909292101859,-0.23651275413632392,-0.3484972113281488
1682095673672222200,19.80922216796875,-0.9457903197824954,-0.4448205735296011,-0.7788932459250092
1682095673692350200,19.82935009765625,-0.6381079339236021,-0.6414169123411179,-1.0031956300467253
1682095673712479200,19.849479248046876,-0.10293901748154312,-0.6597469342797995,-0.9860425429329276
1682095673732607200,19.869607177734373,0.24711543322596696,-0.48697161603868006,-0.8571031515479087
1682095673752735200,19.8897353515625,0.12997669854350388,-0.33296295758783817,-0.5596405464082956
1682095673772864000,19.909864013671875,0.02855214074552059,-0.06691431236565112,-0.4005655444785952
1682095673792992000,19.929991943359376,0.051224612335301935,-0.06871113265454769,-0.12001754152178763
1682095673813120000,19.9501201171875,-0.026934184154868125,-0.30097382813096046,0.12972294297814368
1682095673833249000,19.9702490234375,0.026914894932508468,-0.44571839915215966,0.37421880482286213
1682095673853377000,19.990376953125,-0.03351352601256221,-0.2896311808615923,0.19472119258940218
1682095673873505000,20.010505126953124,-0.051430875497125085,-0.02693652224242687,-0.07790624650120735
1682095673893634000,20.030634033203125,0.09072948771715164,0.22820611356198786,-0.19792846419811247
1682095673913762000,20.050761962890626,0.1640588912894949,0.3436158690273762,0.047529812937974925
1682095673933890000,20.07089013671875,0.07300393447764217,0.41125966471135617,0.27438684997856616
1682095673954019000,20.09101904296875,-0.12988723016176373,0.4273094667583704,0.37897476717829703
1682095673974147000,20.11114697265625,-0.3492208128949627,0.5210340446382761,0.2504699678182602
1682095673994275000,20.131275146484374,-0.31568394253943116,1.0502192470282317,-0.3405067970961332
1682095674014403600,20.151403564453126,-0.47513270968496796,1.4098288040012121,-0.5083434898912906
1682095674034531600,20.171531494140623,-0.8411936347544193,1.3350947577953338,0.15998773286044596
1682095674054659600,20.19165966796875,-1.0150970802426338,1.0405769739359616,0.8170932127207517
1682095674074788600,20.21178857421875,-1.0041033925414085,0.6609849516421556,1.197301905608177
1682095674094916600,20.23191650390625,-0.7268669983506202,0.1826034692943096,1.384835817041993
1682095674115044600,20.252044677734375,-0.2599760473102331,-0.0035498014360666272,1.3571417544305324
1682095674135173600,20.272173583984376,-0.021844752061367035,0.16305179660618305,1.4516618666023016
1682095674155301600,20.292301513671877,-0.11133976608011871,0.08405424773693085,1.7704677040219305
1682095674175429600,20.3124296875,-0.13943941381778568,0.10093816252052783,1.6595546754539012
1682095674195558700,20.33255859375,-0.04912029699981212,-0.06228782160878181,1.0701619648605585
1682095674215686700,20.352686767578124,0.03984627269804478,-0.16267244189977645,0.6769827312409877
1682095674235814700,20.372814697265625,0.005143756096623838,-0.053980011990666384,0.5258779775381088
1682095674255943400,20.392943359375,-0.027312369817495345,-0.011588146463036537,0.7430448106914759
1682095674276071400,20.413071533203127,0.04018005296336487,-0.08868950632214545,0.7626017440766095
1682095674296199700,20.43319970703125,0.07748480621874332,-0.21780513105690477,0.6688017628729342
1682095674316328400,20.453328369140625,-0.08573299460411071,-0.22579729885458946,0.5301145921945571
1682095674336456400,20.47345654296875,-0.4631529335558414,-0.1521089623093605,0.2874041524618864
1682095674356584400,20.49358447265625,-0.690156685590744,-0.2041489461481571,0.10853285543322562
1682095674376713500,20.51371337890625,-0.5883961007714271,-0.15030162062644958,0.04636836794316768
1682095674396841500,20.533841552734376,-0.3370189549803734,0.29699498762786386,-0.026564181798696518
1682095674416969500,20.553969482421873,-0.46875966752171516,0.9382570016682148,0.18391455189287662
1682095674437098500,20.574098388671874,-0.7253004796862602,0.9445932189524173,0.24715806679129598
1682095674457226500,20.5942265625,-0.7524585357248783,0.4913029232412576,0.05897299797236919
1682095674477354500,20.6143544921875,-0.2642757903307676,0.1702823323816061,0.03510521565079689
1682095674497482500,20.634482421875,0.17593641262054444,0.2196037049114704,0.48068099146187304
1682095674517611500,20.654611572265626,0.359869669213891,0.6265647956460714,0.5900707559853792
1682095674537739500,20.674739501953123,0.44293432139158245,0.8555980076819658,0.4088648785293102
1682095674557867500,20.694867431640624,0.16602993563413618,0.5708943463504315,0.5316992310374975
1682095674577996500,20.71499658203125,0.03080315280901268,0.34335517226457596,0.585938186225295
1682095674598124500,20.73512451171875,0.07426233704090118,0.3754471775740385,0.7759586537778377
1682095674618252500,20.75525244140625,0.02320199362291023,0.5822784946739673,0.6496037259280681
1682095674638381600,20.775381591796876,-0.12401157959401607,0.3159066088467836,0.45667233936488627
1682095674658509600,20.795509521484377,-0.07378945883214473,-0.39454058510065076,0.38661563732028004
1682095674678637600,20.815637451171874,0.44802024635374543,-0.5809913774728774,0.5211100324839353
1682095674698766600,20.8357666015625,0.8718541459560394,-0.32289398351609705,0.8145230699717998
1682095674718894600,20.85589453125,0.9072405166357755,0.2556353877574205,0.7497539529412984
1682095674739022600,20.876022705078125,0.884352393001318,0.4549526759654283,0.5007189863622188
1682095674759151400,20.8961513671875,0.7350199096679687,-0.027394202882051466,0.3253384540587663
1682095674779279400,20.916279296875,0.9916419703751802,0.12732757227420807,0.36061551914513107
1682095674799407400,20.936407470703124,1.076496428579092,0.4684177222162485,0.8895306724220514
1682095674819536400,20.956536376953125,0.5153694430053234,0.7315671388655901,1.1625748756200074
1682095674839664400,20.976664306640625,-0.25912381439507004,0.6332090559661389,0.9179121327757835
1682095674859792400,20.99679248046875,-0.6990893491089344,0.18028291739225386,0.6322504400670528
1682095674879921400,21.01692138671875,-0.27859772740555927,0.292205415263772,0.7413076116353273
1682095674900049400,21.03704931640625,0.03516251706229523,0.3493944524288177,1.2794371679812668
1682095674920177400,21.057177490234373,0.21097555903149767,0.1189163022816181,1.3396376619219779
1682095674940306400,21.077306396484374,0.3724713766336441,-0.18818857595026492,0.7936649908602237
1682095674960434400,21.097434326171875,0.2414841128081083,-0.34246669899225235,0.46416707903444765
1682095674980562400,21.1175625,0.3858078646013513,-0.014992401948571205,0.48141690452098845
1682095675000691500,21.13769140625,0.6789128225207328,0.5773924761980772,0.8175058851748704
1682095675020820500,21.157820556640626,0.5373439589262008,0.5705822116613388,0.9739753807812929
1682095675040948500,21.177948486328123,0.30826340061724183,0.6123147364974022,0.6148322722762822
1682095675061077200,21.1980771484375,-0.17509002492427825,0.5927805994659662,0.5255927308559417
1682095675081205200,21.218205322265625,-0.4243377574712038,0.6068155545592308,0.5496195031315088
1682095675101333500,21.23833349609375,-0.5243816015005112,0.3838333131253719,0.5939163254976272
1682095675121462300,21.258462158203123,-0.17231413047015665,0.08439677756428718,0.3368199252769351
1682095675141590300,21.27859033203125,0.3942693669438362,-0.19642975007295607,0.04840571898967028
1682095675161718300,21.29871826171875,0.74038874322474,-0.22244389677345752,-0.07734978166222573
1682095675181847300,21.318847412109374,0.8404863632678985,-0.19798633186519146,-0.07207359482496976
1682095675201975300,21.338975341796875,0.6198778652280569,-0.41887130875885487,-0.23967910921275615
1682095675222103300,21.359103271484376,0.6192647017657756,-0.3128098118752241,-0.21216537160426377
1682095675242232300,21.379232421875,0.5536188019007444,-0.39473230828046796,-0.19245617026686668
1682095675262360300,21.3993603515625,0.5789367830306291,-0.4898141459882259,-0.3423950950607657
1682095675282488300,21.41948828125,0.6078612642198801,-0.5054816707193851,-0.3306260390728712
1682095675302617300,21.439617431640624,0.6403986752092838,-0.6014268472582102,-0.38120150331705804
1682095675322745300,21.459745361328125,0.5658663255879656,-0.6793290021061897,-0.5324795677602291
1682095675342873300,21.479873291015625,0.6571218464732169,-0.600778027960658,-0.806708304567635
1682095675363002400,21.50000244140625,0.7190612930357456,-0.5752390975564718,-1.0549714099913834
1682095675383130400,21.52013037109375,0.594603138718009,-0.46341596840620036,-1.0524833925679324
1682095675403258400,21.54025830078125,0.3530739811917767,-0.35780630694329735,-1.2855509746864437
1682095675423387400,21.560387451171874,0.1518260171821341,-0.09490297400951385,-1.5241045870006082
1682095675443515400,21.580515380859374,-0.14938392125964164,-0.044805356410145755,-1.96741358692348
1682095675463643400,21.600643310546875,-0.13029224903238937,-0.4414350227445364,-2.5213310795098542
1682095675483772200,21.620772216796876,-0.25421437851097434,-0.8741682681173085,-2.7550039340451358
1682095675503900400,21.640900390625,0.2914057893186807,-0.8825818761974573,-2.349176523515582
1682095675524028400,21.6610283203125,0.7611223191738128,-0.5690408274382353,-1.6861328857779503
1682095675544157200,21.6811572265625,0.7293424485534429,-0.14200608596801756,-1.0876502752780914
1682095675564285200,21.70128515625,0.22274784815609452,0.08372165478169917,-0.9103387749120593
1682095675584413200,21.7214130859375,-0.3943727907856926,0.21291852805912492,-0.8977417436674237
1682095675604542200,21.741542236328126,-0.6222334884434938,0.19662205777466296,-0.49040948153287167
1682095675624670200,21.761670166015627,-0.5387163797905669,0.12463526445031166,-0.20906506750136614
1682095675644798200,21.781798095703124,-0.29468846425116063,-0.0193365686327219,-0.18252660466581583
1682095675664927200,21.80192724609375,-0.2827379142165184,-0.16141045913994312,-0.1178732229694724
1682095675685055200,21.82205517578125,-0.5177098686516285,-0.3675041096150875,-0.11151304028779267
1682095675705183200,21.842183349609375,-0.8254542138308286,-0.38328152446150776,-0.02193652199804783
1682095675725312300,21.862312255859376,-0.7815875995755195,-0.21654139473140238,0.22441870397776364
1682095675745440300,21.882440185546876,-0.6766466311544179,-0.1058808796197176,0.13307166888415814
1682095675765568300,21.902568359375,-0.3557861992925405,0.09214987590909003,-0.04627893609404564
1682095675785697300,21.922697265625,-0.25491522025670854,0.01291910280585289,0.0616498159661889
1682095675805825300,21.9428251953125,-0.3924667014360428,0.08478665366470814,0.4749012390166521
1682095675825953300,21.962953369140624,-0.5585000711362809,0.11181026966869831,0.7754150484204292
1682095675846081300,21.983081298828125,-0.5006564425200224,0.2593225518375635,0.7665151181280613
1682095675866210300,22.003210205078126,-0.4204441840987652,0.12452362076938152,0.8496466980621218
1682095675886338300,22.02333837890625,-0.17538696204423904,0.07476151873469353,0.7918906746640801
1682095675906466300,22.04346630859375,0.0328775296639651,-0.06043371817469596,0.8063982157051562
1682095675926595300,22.06359521484375,0.11068740311861038,0.198990540471673,0.44677696829438207
1682095675946723300,22.083723388671874,-0.18577274698019028,0.6262403859972954,0.505371780604124
1682095675966851300,22.103851318359375,-0.7802841157615185,0.7108692187517881,0.5630389566749334
1682095675986980400,22.12398046875,-0.8795213195830583,0.6100462070435285,0.4364069654494524
1682095676007108000,22.144108154296877,-0.7785796499311923,0.4701397237032652,0.6643389382451772
1682095676027236000,22.164236083984374,-0.4498211582958698,0.39569150870144365,0.9032043929874897
1682095676047364900,22.18436474609375,-0.13516710679344832,0.46008594720065593,1.0490244842857122
1682095676067492900,22.204492919921876,-0.17071721666753292,0.4581050025165081,1.1472604021102188
1682095676087620900,22.224620849609376,-0.5093377616256475,0.3857990602403879,0.9622492871522903
1682095676107750000,22.24475,-0.5872632242839783,0.35201661762595177,0.8625818752199411
1682095676127878000,22.2648779296875,-0.15083938076496123,0.30330431690514087,0.7633271357417106
1682095676148006000,22.285005859375,0.27367665588259693,0.3474515016674995,0.8527630765169858
1682095676168135000,22.305135009765625,0.2129378903467208,0.3878688522517681,1.0878168640166521
1682095676188263000,22.325262939453125,0.018897592693567274,0.3066179714977741,0.9985025037944316
1682095676208391000,22.345390869140626,0.0003127192109823227,0.22563772437870502,0.8167085973173379
1682095676228520000,22.36552001953125,0.16005846000909804,0.09133505239486694,0.5879015952527523
1682095676248648000,22.38564794921875,0.4142331275641918,0.12934592635929584,0.44849137099683284
1682095676268776000,22.40577587890625,0.3859644799351692,-0.025545944666862486,0.48095922388136386
1682095676288905000,22.425905029296874,0.317845467954874,-0.021931845822930333,0.2584124512553215
1682095676309033000,22.446032958984375,0.1918367231942713,0.16434534354805946,0.30313597460091113
1682095676329161000,22.466160888671876,0.05109663857407867,0.23822774136066435,0.6175906310737133
1682095676349290000,22.4862900390625,0.29546997001767156,0.2467132456332445,0.2930938885360956
1682095676369418000,22.50641796875,0.4527613034009933,0.36842882324457166,0.3700210608720779
1682095676389546000,22.5265458984375,0.32942893824279307,0.4241664925575256,0.33396132097542286
1682095676409675000,22.546675048828124,0.1506627820890397,0.5800935518503189,0.32675708868503567
1682095676429803000,22.566802978515625,-0.025302783560752867,0.5421510669469833,0.5184674090206622
1682095676449931000,22.586930908203126,0.032335750937461855,0.25066344456374645,0.3315180194765329
1682095676470059800,22.607059814453127,-0.04072780477292835,0.01268295596241951,0.4609130456745624
1682095676490187800,22.627187744140624,-0.28159276276938616,-0.17315876460075377,0.6239566589742899
1682095676510315800,22.647315673828125,-0.2626548745980486,-0.2631774737000465,0.12369827586114406
1682095676530445000,22.667445068359374,-0.08473397362940013,-0.21525778466165066,-0.20531740540564059
1682095676550572800,22.68757275390625,0.2671913855165243,-0.09059855481386184,-0.43331367560923095
1682095676570700800,22.70770068359375,0.5231237103939056,0.1315478203177452,-0.5746686041921377
1682095676590830000,22.727830078125,0.32620639599971474,0.41968496322929855,-0.48789983679950233
1682095676610958000,22.7479580078125,-0.11082768837213515,0.6943401087552309,-0.577016044101119
1682095676631085800,22.7680859375,-0.13568619876410812,1.0170260024785995,-0.4542746305733919
1682095676651215000,22.788215087890624,-0.3089835315853357,0.9452660036474466,0.35970775665044785
1682095676671343000,22.808343017578125,-0.5956921029984951,0.5990612871706485,0.8367214577764273
1682095676691471000,22.82847119140625,-0.7446434780597686,0.5281155273318291,0.7878951752871275
1682095676711600000,22.84860009765625,-0.7353525026232004,-0.021490531796216964,0.3278694338411093
1682095676731728100,22.86872802734375,-0.19322068836595863,-0.3745055128097534,-0.0710766927421093
1682095676751856000,22.888856201171876,0.5566407800704241,-0.5253934088915586,0.25983459301292894
1682095676771985200,22.908985107421874,1.0953823308348656,-0.6312170053660869,0.3283873202353716
1682095676792113200,22.929113037109374,1.3624988975495098,-0.45613574827015396,0.1311772334396839
1682095676812241200,22.9492412109375,1.0086392824053765,-0.17467618342638014,0.31664690582007166
1682095676832370000,22.969369873046876,0.2181312942713499,-0.10008183795213699,0.42849546167254443
1682095676852498200,22.989498291015625,-0.24206162043511867,-0.0926262612491846,0.7620555083706975
1682095676872626200,23.009626220703126,-0.39724575240612026,0.033365678507089616,1.072316804806888
1682095676892755000,23.0297548828125,-0.3390074984490871,0.20231705454587937,0.8729255745798349
1682095676912883000,23.049883056640624,-0.3996095589280128,0.3074041534394026,0.6908245018497109
1682095676933011000,23.070010986328125,-0.41413901953995225,0.24728198543190955,0.7179878185853361
1682095676953140000,23.090139892578126,-0.13789983795927838,0.16180091976225375,0.6483358979493379
1682095676973268000,23.11026806640625,-0.05461128649837337,-0.06427987220883369,0.7161991816028952
1682095676993396000,23.13039599609375,-0.07381283057457767,-0.2826198407948017,0.29664719710350035
1682095677013525000,23.15052490234375,-0.09182720155967398,-0.3256576030105352,-0.19444208338707683
1682095677033653000,23.170653076171874,0.18546179960118606,-0.020564649122953412,-0.34782968733012676
1682095677053781000,23.190781005859375,0.3128980746805668,0.3720955290585756,-0.0379345938578248
1682095677073910000,23.210909912109376,0.12140811909735202,0.621468349289894,0.1044748122140765
1682095677094038000,23.2310380859375,-0.24544658669829367,0.3140285400152206,0.17317220860421656
1682095677114166000,23.251166015625,-0.57078504075706,-0.34467034651637074,-0.09985387441515922
1682095677134295000,23.271294921875,-0.36290333782136436,-0.529814732465148,-0.2328428334519267
1682095677154423000,23.291423095703124,0.16687517255293205,-0.36248715823590755,0.17521686617434024
1682095677174551000,23.311551025390624,0.45307928330898284,-0.1213520049959421,0.35597120047062636
1682095677194680000,23.33168017578125,0.3415186044871807,-0.10103753124177456,0.44574674846380946
1682095677214808000,23.35180810546875,0.2507160698001273,-0.09689560913145541,0.3890156841993332
1682095677234936000,23.37193603515625,0.2956821514636278,-0.20962357816696164,0.2773568057000637
1682095677255065000,23.392065185546876,0.41980420569479465,-0.3703448859989643,0.1571814432680607
1682095677275193000,23.412193115234373,0.37194413788914676,-0.4556991104185581,0.07692951042354107
1682095677295321000,23.432321044921874,0.2098006882995367,-0.4210942455053329,-0.27647534669041635
1682095677315449900,23.452449951171875,-0.06044246773673221,-0.48179567470550533,-0.3927133696734905
1682095677335577900,23.472577880859376,-0.02713642872869968,-0.5692237827897072,-0.7001774366065859
1682095677355705900,23.492705810546877,0.3513800732880831,-0.6922445977807045,-1.1246803215116261
1682095677375835000,23.5128349609375,0.6430488974571228,-0.6926490869283676,-1.2861913184165954
1682095677395963000,23.532962890625,0.6383943496495484,-0.49221127025783057,-1.3286574182242155
1682095677416091000,23.5530908203125,0.2606733819246292,-0.1465928292363882,-1.7040289002135396
1682095677436220000,23.573219970703125,0.11427404770003631,-0.1182984626442194,-1.932619629178941
1682095677456348000,23.593347900390626,0.42569034112393855,-0.5719032311320305,-2.061891028997302
1682095677476476000,23.613475830078126,0.3761749438593164,-0.8423521571397781,-1.8940803474262355
1682095677496605000,23.63360498046875,-0.17261104932380839,-0.7613263173133135,-1.6064897324815393
1682095677516733000,23.65373291015625,-0.6442290471523999,-0.5320826773971319,-1.2368696536257862
1682095677536861000,23.67386083984375,-0.47348552699983115,-0.30487025104761123,-0.7444479554876685
1682095677556990000,23.693989990234375,-0.1585007091730833,-0.05988426759839058,-0.3743617204248905
1682095677577118000,23.714117919921875,-0.041800311108957974,0.00452653751373291,-0.29595278509855266
1682095677597246000,23.734245849609376,-0.032403007487393914,0.1889431937098503,-0.368913099630177
1682095677617375000,23.754375,-0.20193010105490683,0.3258499107122421,-0.393001538965106
1682095677637503000,23.7745029296875,-0.28676530656907706,0.44264790566563605,-0.6159478323027491
1682095677657631000,23.794630859375,0.05984163403306156,0.028462708896398542,-0.8948208877846598
1682095677677760000,23.814760009765624,0.25506251977290956,-0.4723468783587217,-1.0349854375392198
1682095677697888000,23.834887939453125,0.24416772586889562,-0.6882067205667496,-1.131747191157937
1682095677718016000,23.85501611328125,-0.06364098978340625,-0.8948544977933168,-1.2261162044212222
1682095677738144800,23.875144775390623,-0.0979641516784206,-0.8331962062597275,-1.1359776683345437
1682095677758272800,23.895272705078124,-0.053314826080203055,-0.5871200894862413,-0.8244625724449753
1682095677778401000,23.915401123046873,-0.11582414495255798,-0.28054829521775243,-0.48327509960830206
1682095677798529800,23.93552978515625,-0.33841833691690115,0.08642740660905837,-0.3360024714142084
1682095677818657800,23.95565771484375,-0.7798200053811073,0.2766565484762192,-0.202737325784564
1682095677838785800,23.975785888671876,-1.0008119497805834,0.31381928117871283,0.0464656908378005
1682095677858914800,23.995914794921877,-1.249727673894167,0.28419571180939673,0.4564665876597166
1682095677879042800,24.016042724609374,-0.9968863007694482,0.5323334372878075,0.46911476456969975
1682095677899170800,24.0361708984375,-0.9946545961946248,0.4656804062068462,0.8338894492208957
1682095677919299800,24.0562998046875,-0.9183633836746216,0.40526305464506146,0.8701695538699626
1682095677939427800,24.076427734375,-0.7573954076051712,0.4572445862948894,0.7392354815363884
1682095677959555800,24.096555908203126,-0.5742413186907768,0.6633388212919235,0.5865466735124588
1682095677979684900,24.116684814453127,-0.35481760998871176,0.8087211056947707,0.4336164579480886
1682095677999812900,24.136812744140624,-0.17036124283671378,1.1038602363228798,0.2339291673839092
1682095678019940600,24.156940673828124,-0.3184960042854771,1.107332296347618,0.7517226226657628
1682095678040069600,24.177069580078125,-0.7807032179564237,0.832353910216689,1.3969079476296902
1682095678060197600,24.19719775390625,-1.0918600019276141,0.5737602571755648,1.5808476339638233
1682095678080325600,24.21732568359375,-1.018395537266135,0.35500060187280175,1.3578887734055518
1682095678100455000,24.237454833984376,-0.5756447557479143,0.2552811674922705,1.2562275573074817
1682095678120582700,24.257582763671873,-0.01240596565194428,0.1789829407095909,1.4384300445854663
1682095678140710700,24.277710693359374,0.35477504948861893,0.04004325657486915,1.5827514217585323
1682095678160839700,24.297839599609375,0.4510089067757129,-0.23451485831737517,1.478356396782398
1682095678180967700,24.3179677734375,0.5059259073555469,-0.2808762119978666,1.1316934151440858
1682095678201095700,24.338095703125,0.36186471548862753,-0.29295418780446053,0.9569728080540895
1682095678221224700,24.358224609375,0.3707803548067808,-0.15775252115428448,0.8163304116547108
1682095678241352700,24.378352783203123,0.42269108624272045,-0.1669540647417307,0.8158399977892636
1682095678261480700,24.398480712890624,0.4553104764271527,-0.3446726846039295,0.8403215280950069
1682095678281609700,24.418609619140625,0.5117056598007679,-0.28317104493677614,0.7391565710812806
1682095678301737700,24.43873779296875,0.43743280136585233,-0.19445465060770512,0.7198889760315418
1682095678321865700,24.45886572265625,0.37125264849364753,-0.21355098074376583,0.6065618720591068
1682095678341993700,24.47899365234375,0.4069061456769705,-0.17260113071799277,0.31503391766548156
1682095678362122800,24.499122802734377,0.35626726080775256,-0.07841127341389656,0.32786884931921956
1682095678382250800,24.519250732421874,0.24021979196071624,-0.03861760768592357,-0.008760521821677685
1682095678402378800,24.539378662109375,0.04526720176823437,0.025903672063350675,-0.22688158695995805
1682095678422507800,24.5595078125,-0.15817980665564535,0.07711889551579952,-0.3617760873571038
1682095678442635800,24.5796357421875,-0.03161920016594231,0.17697101636528967,-0.8103083748862147
1682095678462763800,24.599763671875,0.22136662293076514,0.40474516825079915,-1.0096224482238292
1682095678482892800,24.619892822265626,0.03284479643814266,0.5938081889480352,-0.6240726865693926
1682095678503020800,24.640020751953124,-0.281181332424283,0.6089777010291815,-0.4902347094878554
1682095678523148800,24.660148681640624,-0.5264771855402738,0.7039402962714433,-0.28185674746781586
1682095678543277800,24.68027783203125,-0.5819072502087801,0.9622019408792257,-0.24503683685362337
1682095678563405800,24.70040576171875,-0.21638529085423797,1.37842594999969,-0.3686833825275302
1682095678583533800,24.720533935546875,-0.3448801533421501,1.36932494417727,0.20312807866781948
1682095678603662800,24.740662841796876,-0.6943944692909717,0.9839701205730438,0.5672203340128064
1682095678623790800,24.760790771484373,-1.009699020591378,-0.046045127338171,0.5138932329729199
1682095678643918800,24.7809189453125,-0.7245441083610057,-0.8301321425139904,0.32290158230066296
1682095678664047600,24.801047607421875,-0.016897358787059783,-0.7733914336383342,0.3489437860518694
1682095678684175600,24.821175537109376,0.6909598186671734,-0.5461357526689767,0.3658043199598789
1682095678704303600,24.8413037109375,1.215958090761304,-0.4486182122468948,0.38527766671478747
